onset	duration	trial_type	correct_response	accuracy	response_time	stimulus	position
2.021	1.8	no_response	n/a	0.0	1.016	v	TR
3.82	2.0	1-back	0.0	1.0	1.159	p	TL
5.833	2.0	1-back	0.0	1.0	0.843	z	BL
7.846	2.0	1-back	1.0	1.0	0.602	c	BL
9.858	2.0	1-back	0.0	1.0	0.585	t	TR
11.871	2.0	1-back	0.0	1.0	0.515	l	TL
13.883	2.0	1-back	1.0	0.0	0.671	c	TL
15.896	2.0	1-back	0.0	1.0	0.66	v	BL
17.908	2.0	1-back	0.0	1.0	0.626	n	BR
19.921	2.0	1-back	1.0	1.0	0.577	l	BR
21.933	2.0	1-back	0.0	1.0	0.567	v	TL
23.946	2.0	1-back	0.0	1.0	0.603	c	BR
25.958	2.0	1-back	0.0	1.0	0.74	r	TR
27.971	2.0	1-back	1.0	1.0	0.314	t	TR
29.984	2.0	1-back	0.0	1.0	0.385	n	BL
31.996	2.0	1-back	1.0	1.0	0.598	s	BL
34.009	2.0	1-back	0.0	1.0	0.561	v	TR
36.021	2.0	1-back	0.0	1.0	0.758	p	TL
38.034	2.0	1-back	1.0	1.0	0.673	c	TL
40.046	2.0	1-back	0.0	1.0	0.565	g	TR
42.059	2.0	1-back	1.0	0.0	0.621	z	TR
44.071	2.0	1-back	0.0	1.0	0.863	x	BR
46.084	2.0	1-back	0.0	1.0	0.61	g	BL
48.097	2.0	1-back	0.0	1.0	0.66	l	TL
50.109	2.0	1-back	0.0	1.0	0.712	r	BL
52.122	2.0	1-back	1.0	1.0	0.767	x	BL
54.134	2.0	1-back	0.0	1.0	0.643	f	BR
56.147	2.0	1-back	0.0	1.0	0.872	z	TR
58.159	2.0	1-back	1.0	1.0	0.916	r	TR
60.172	2.0	1-back	0.0	1.0	0.938	f	BL
62.184	2.0	1-back	1.0	1.0	0.753	n	BL
64.197	2.0	1-back	0.0	1.0	0.814	x	TR
66.21	2.0	1-back	1.0	1.0	0.885	t	TR
68.222	2.0	1-back	0.0	1.0	0.593	p	BR
70.235	2.0	1-back	1.0	0.0	0.922	x	BR
72.247	2.0	1-back	0.0	1.0	0.748	t	TL
74.26	2.0	1-back	1.0	0.0	0.818	s	TL
76.272	2.0	1-back	0.0	1.0	0.574	f	BL
78.285	2.0	1-back	0.0	1.0	0.82	l	BR
80.297	2.0	1-back	1.0	1.0	0.77	g	BR
82.31	2.0	1-back	0.0	1.0	0.67	n	TL
84.322	2.0	1-back	0.0	1.0	0.601	s	TR
86.335	2.0	1-back	0.0	1.0	0.897	p	BR
88.348	2.0	1-back	0.0	1.0	1.047	r	TL
90.36	2.0	1-back	1.0	0.0	0.941	s	TL
92.373	2.0	1-back	0.0	1.0	0.728	g	BR
94.385	2.0	1-back	1.0	1.0	0.509	z	BR
96.398	2.0	1-back	0.0	1.0	0.491	f	BL
102.449	2.0	baseline	n/a	1.0	n/a	blackcross.bmp	n/a
104.488	2.0	baseline	1.0	1.0	0.364	redcross.bmp	n/a
106.527	2.0	baseline	n/a	1.0	n/a	blackcross.bmp	n/a
108.566	2.0	baseline	1.0	1.0	0.328	n/a	n/a
110.605	2.0	baseline	n/a	1.0	n/a	blackcross.bmp	n/a
112.645	2.0	baseline	n/a	1.0	n/a	blackcross.bmp	n/a
114.684	2.0	baseline	1.0	1.0	0.33	n/a	n/a
116.723	2.0	baseline	n/a	1.0	n/a	blackcross.bmp	n/a
118.762	2.0	baseline	n/a	1.0	n/a	blackcross.bmp	n/a
120.801	2.0	baseline	n/a	1.0	n/a	blackcross.bmp	n/a
122.841	2.0	baseline	1.0	1.0	0.393	n/a	n/a
124.88	2.0	baseline	n/a	1.0	n/a	blackcross.bmp	n/a
130.918	1.8	no_response	n/a	1.0	n/a	c	BL
132.717	1.8	no_response	n/a	1.0	n/a	p	BR
134.516	2.0	2-back	1.0	1.0	0.409	n	BL
136.529	2.0	2-back	0.0	1.0	0.614	x	TR
138.541	2.0	2-back	0.0	1.0	0.91	g	TL
140.554	2.0	2-back	1.0	1.0	0.483	p	TR
142.567	2.0	2-back	1.0	1.0	0.717	c	TL
144.579	2.0	2-back	0.0	1.0	0.806	x	BL
146.592	2.0	2-back	1.0	1.0	1.008	l	TL
148.604	2.0	2-back	0.0	1.0	0.937	v	TR
150.617	2.0	2-back	0.0	1.0	0.903	g	TR
152.629	2.0	2-back	0.0	1.0	0.985	t	BR
154.642	2.0	2-back	0.0	1.0	0.87	z	BL
156.654	2.0	2-back	1.0	1.0	0.744	n	BR
158.667	2.0	2-back	0.0	1.0	0.893	f	TL
160.68	2.0	2-back	0.0	1.0	0.817	n	TR
162.692	2.0	2-back	1.0	0.0	0.949	t	TL
164.705	2.0	2-back	0.0	1.0	0.956	v	BL
166.717	2.0	2-back	1.0	1.0	0.903	l	TL
168.73	2.0	2-back	0.0	1.0	1.115	r	TL
170.742	2.0	2-back	0.0	1.0	1.007	s	BR
172.755	2.0	2-back	0.0	1.0	0.809	v	BL
174.767	2.0	2-back	1.0	1.0	0.684	n	BR
176.78	2.0	2-back	0.0	1.0	0.698	p	TL
178.792	2.0	2-back	0.0	1.0	0.87	s	TR
180.805	2.0	2-back	0.0	1.0	1.039	g	BR
182.818	2.0	2-back	0.0	1.0	0.912	p	BL
184.83	2.0	2-back	1.0	1.0	0.756	f	BR
186.843	2.0	2-back	0.0	1.0	0.796	r	TR
188.855	2.0	2-back	0.0	1.0	0.891	s	BL
190.868	2.0	2-back	1.0	0.0	0.91	z	TR
192.88	2.0	2-back	1.0	0.0	0.754	x	BL
194.893	2.0	2-back	0.0	1.0	0.718	c	TL
196.905	2.0	2-back	0.0	1.0	0.9	r	TR
198.918	2.0	2-back	0.0	1.0	1.088	v	BR
200.931	2.0	2-back	0.0	0.0	1.131	l	TL
202.943	2.0	2-back	1.0	0.0	0.721	c	BR
204.956	2.0	2-back	0.0	1.0	0.964	s	TR
206.968	2.0	2-back	1.0	1.0	1.053	t	BR
208.981	2.0	2-back	0.0	1.0	0.758	r	BL
210.993	2.0	2-back	0.0	1.0	0.913	f	TL
213.006	2.0	2-back	1.0	0.0	0.755	z	BL
215.018	2.0	2-back	0.0	1.0	0.815	l	TR
217.031	2.0	2-back	0.0	1.0	0.702	x	TL
219.044	2.0	2-back	1.0	1.0	0.558	f	TR
221.056	2.0	2-back	0.0	1.0	0.608	g	BR
223.069	2.0	2-back	0.0	1.0	0.723	t	BL
225.081	2.0	2-back	1.0	1.0	0.605	z	BR
231.132	2.0	baseline	n/a	1.0	n/a	blackcross.bmp	n/a
233.171	2.0	baseline	1.0	1.0	0.445	redcross.bmp	n/a
235.21	2.0	baseline	n/a	1.0	n/a	blackcross.bmp	n/a
237.25	2.0	baseline	1.0	1.0	0.341	redcross.bmp	n/a
239.289	2.0	baseline	n/a	1.0	n/a	blackcross.bmp	n/a
241.328	2.0	baseline	n/a	1.0	n/a	blackcross.bmp	n/a
243.367	2.0	baseline	n/a	1.0	n/a	blackcross.bmp	n/a
245.406	2.0	baseline	n/a	1.0	n/a	blackcross.bmp	n/a
247.446	2.0	baseline	1.0	1.0	0.441	redcross.bmp	n/a
249.485	2.0	baseline	n/a	1.0	n/a	blackcross.bmp	n/a
251.524	2.0	baseline	n/a	1.0	n/a	blackcross.bmp	n/a
253.563	2.0	baseline	1.0	1.0	0.403	redcross.bmp	n/a
