onset	duration	trial_type	correct_response	accuracy	response_time	stimulus	position
4.026	1.8	no_response	n/a	1.0	n/a	c	TR
5.825	2.0	1-back	0.0	1.0	0.754	g	BL
7.824	2.0	1-back	0.0	1.0	0.676	p	TR
9.824	2.0	1-back	1.0	1.0	0.664	p	BL
11.823	2.0	1-back	0.0	1.0	0.565	t	TL
13.822	2.0	1-back	0.0	1.0	0.585	v	BR
15.821	2.0	1-back	1.0	1.0	0.636	v	TL
17.82	2.0	1-back	0.0	1.0	0.608	s	BL
19.819	2.0	1-back	1.0	1.0	0.469	s	TR
21.818	2.0	1-back	0.0	1.0	0.536	x	BR
23.817	2.0	1-back	0.0	1.0	0.573	n	TL
25.816	2.0	1-back	1.0	0.0	0.455	n	BR
27.815	2.0	1-back	0.0	1.0	0.638	f	TR
29.814	2.0	1-back	1.0	1.0	0.442	f	TL
31.813	2.0	1-back	0.0	1.0	0.623	l	TR
33.812	2.0	1-back	0.0	1.0	0.707	r	BL
35.811	2.0	1-back	0.0	1.0	0.595	z	TR
37.81	2.0	1-back	1.0	1.0	0.579	z	TL
39.81	2.0	1-back	0.0	1.0	0.564	c	TR
41.809	2.0	1-back	1.0	1.0	0.711	c	BL
43.808	2.0	1-back	0.0	1.0	0.563	g	TR
45.807	2.0	1-back	1.0	1.0	0.723	g	BR
47.806	2.0	1-back	0.0	1.0	0.577	x	BL
49.805	2.0	1-back	0.0	1.0	0.597	t	TL
51.804	2.0	1-back	1.0	1.0	0.706	t	BL
53.803	2.0	1-back	0.0	1.0	0.628	r	BR
55.802	2.0	1-back	0.0	1.0	0.686	p	BL
57.801	2.0	1-back	0.0	1.0	0.734	v	TL
59.8	2.0	1-back	0.0	1.0	0.569	s	TR
61.799	2.0	1-back	1.0	0.0	0.715	s	BR
63.798	2.0	1-back	0.0	1.0	0.723	x	BL
65.797	2.0	1-back	1.0	1.0	0.726	x	TL
67.797	2.0	1-back	0.0	1.0	0.667	l	TR
69.796	2.0	1-back	1.0	1.0	0.587	l	BL
71.795	2.0	1-back	0.0	1.0	0.451	n	BR
73.794	2.0	1-back	1.0	1.0	0.652	n	TL
75.793	2.0	1-back	0.0	1.0	0.631	z	BR
77.792	2.0	1-back	1.0	0.0	0.955	z	TL
79.791	2.0	1-back	0.0	1.0	0.364	c	BR
81.79	2.0	1-back	0.0	1.0	0.589	g	BL
83.789	2.0	1-back	0.0	1.0	0.61	p	TL
85.788	2.0	1-back	0.0	1.0	0.607	t	TR
87.787	2.0	1-back	0.0	1.0	0.641	v	BR
89.786	2.0	1-back	0.0	1.0	0.828	f	TL
91.785	2.0	1-back	1.0	1.0	0.405	f	TR
93.784	2.0	1-back	0.0	1.0	0.401	l	BR
95.783	2.0	1-back	0.0	1.0	0.498	r	BL
97.783	2.0	1-back	1.0	1.0	0.822	r	BR
103.829	2.0	baseline	1.0	1.0	0.415	redcross.bmp	n/a
105.878	2.0	baseline	n/a	1.0	n/a	blackcross.bmp	n/a
107.928	2.0	baseline	1.0	1.0	0.404	redcross.bmp	n/a
109.977	2.0	baseline	n/a	1.0	n/a	blackcross.bmp	n/a
112.026	2.0	baseline	n/a	1.0	n/a	blackcross.bmp	n/a
114.075	2.0	baseline	1.0	1.0	0.746	redcross.bmp	n/a
116.124	2.0	baseline	n/a	1.0	n/a	blackcross.bmp	n/a
118.173	2.0	baseline	1.0	1.0	0.48	redcross.bmp	n/a
120.222	2.0	baseline	n/a	1.0	n/a	blackcross.bmp	n/a
122.271	2.0	baseline	n/a	1.0	n/a	blackcross.bmp	n/a
124.32	2.0	baseline	n/a	1.0	n/a	blackcross.bmp	n/a
126.369	2.0	baseline	n/a	1.0	n/a	blackcross.bmp	n/a
132.416	1.8	no_response	n/a	0.0	0.889	r	TR
134.216	1.8	no_response	n/a	1.0	n/a	p	BL
136.015	2.0	2-back	0.0	1.0	0.783	s	BL
138.014	2.0	2-back	1.0	0.0	0.637	p	TR
140.013	2.0	2-back	0.0	1.0	0.538	c	TL
142.012	2.0	2-back	0.0	1.0	0.612	g	TL
144.011	2.0	2-back	1.0	1.0	0.454	c	BL
146.01	2.0	2-back	0.0	1.0	0.481	f	TR
148.009	2.0	2-back	0.0	1.0	0.678	x	TR
150.008	2.0	2-back	0.0	0.0	0.914	z	TL
152.007	2.0	2-back	1.0	1.0	1.095	x	BR
154.006	2.0	2-back	0.0	1.0	0.486	g	BL
156.005	2.0	2-back	0.0	1.0	0.763	v	TL
158.004	2.0	2-back	1.0	1.0	0.858	g	TL
160.003	2.0	2-back	1.0	1.0	0.865	v	TR
162.003	2.0	2-back	0.0	1.0	0.698	z	BR
164.002	2.0	2-back	0.0	1.0	0.771	n	TL
166.001	2.0	2-back	1.0	1.0	0.599	z	TL
168.0	2.0	2-back	0.0	1.0	0.748	s	BL
169.999	2.0	2-back	1.0	1.0	1.19	z	BR
171.998	2.0	2-back	0.0	1.0	0.547	t	TL
173.997	2.0	2-back	0.0	1.0	0.772	f	BL
175.996	2.0	2-back	1.0	1.0	0.703	t	BR
177.995	2.0	2-back	0.0	1.0	0.661	r	BR
179.994	2.0	2-back	0.0	1.0	0.718	c	TR
181.993	2.0	2-back	1.0	0.0	0.738	r	BL
183.992	2.0	2-back	0.0	1.0	0.896	f	BR
185.991	2.0	2-back	0.0	1.0	0.898	t	TR
187.99	2.0	2-back	1.0	1.0	0.772	f	BL
189.989	2.0	2-back	0.0	1.0	0.396	c	BR
191.989	2.0	2-back	0.0	1.0	0.33	l	BR
193.988	2.0	2-back	0.0	1.0	0.451	n	TR
195.987	2.0	2-back	1.0	0.0	0.678	l	TL
197.986	2.0	2-back	0.0	1.0	0.705	s	BR
199.985	2.0	2-back	0.0	1.0	0.724	g	TR
201.984	2.0	2-back	1.0	0.0	0.731	s	TL
203.983	2.0	2-back	0.0	1.0	0.599	l	BL
205.982	2.0	2-back	0.0	1.0	0.564	r	TR
207.981	2.0	2-back	0.0	1.0	0.584	x	BR
209.98	2.0	2-back	0.0	1.0	0.533	t	TL
211.979	2.0	2-back	1.0	1.0	0.423	x	TR
213.978	2.0	2-back	0.0	1.0	0.56	n	BL
215.977	2.0	2-back	0.0	1.0	0.489	p	BR
217.976	2.0	2-back	1.0	0.0	0.607	n	TR
219.976	2.0	2-back	1.0	0.0	0.559	p	BL
221.975	2.0	2-back	0.0	1.0	0.829	v	BL
223.974	2.0	2-back	0.0	1.0	0.667	l	TL
225.973	2.0	2-back	1.0	0.0	0.621	v	BR
232.02	2.0	baseline	n/a	1.0	n/a	blackcross.bmp	n/a
234.069	2.0	baseline	1.0	1.0	0.414	n/a	n/a
236.118	2.0	baseline	n/a	1.0	n/a	blackcross.bmp	n/a
238.167	2.0	baseline	n/a	1.0	n/a	blackcross.bmp	n/a
240.216	2.0	baseline	n/a	1.0	n/a	blackcross.bmp	n/a
242.265	2.0	baseline	1.0	1.0	0.348	n/a	n/a
244.314	2.0	baseline	n/a	1.0	n/a	blackcross.bmp	n/a
246.363	2.0	baseline	n/a	1.0	n/a	blackcross.bmp	n/a
248.412	2.0	baseline	1.0	1.0	0.427	n/a	n/a
250.461	2.0	baseline	1.0	1.0	1.032	n/a	n/a
252.51	2.0	baseline	n/a	1.0	n/a	blackcross.bmp	n/a
254.559	2.0	baseline	n/a	1.0	n/a	blackcross.bmp	n/a
