onset	duration	trial_type	correct_response	accuracy	response_time	stimulus	position
4.02	1.8	no_response	n/a	1.0	n/a	r	TL
5.819	1.8	no_response	n/a	1.0	n/a	p	TR
7.619	2.0	2-back	0.0	1.0	0.688	x	BL
9.631	2.0	2-back	1.0	1.0	0.849	t	TR
11.644	2.0	2-back	0.0	1.0	0.598	g	TL
13.656	2.0	2-back	0.0	1.0	0.772	n	BL
15.669	2.0	2-back	1.0	1.0	0.338	z	TL
17.682	2.0	2-back	0.0	1.0	0.63	c	TR
19.694	2.0	2-back	0.0	1.0	0.483	v	BR
21.707	2.0	2-back	0.0	1.0	0.685	n	BL
23.719	2.0	2-back	1.0	1.0	0.275	g	BR
25.732	2.0	2-back	0.0	1.0	0.732	s	TL
27.744	2.0	2-back	0.0	1.0	0.623	v	TR
29.757	2.0	2-back	1.0	1.0	0.484	l	TL
31.769	2.0	2-back	1.0	0.0	0.716	f	TR
33.782	2.0	2-back	0.0	1.0	1.056	s	BR
35.795	2.0	2-back	0.0	1.0	0.829	c	TL
37.807	2.0	2-back	0.0	1.0	0.639	r	BL
39.82	2.0	2-back	1.0	1.0	0.481	s	TL
41.832	2.0	2-back	0.0	1.0	0.727	l	BR
43.845	2.0	2-back	0.0	1.0	0.931	z	BL
45.857	2.0	2-back	1.0	1.0	0.425	x	BR
47.87	2.0	2-back	0.0	1.0	0.44	f	TL
49.882	2.0	2-back	0.0	1.0	0.901	t	TL
51.895	2.0	2-back	0.0	1.0	0.948	x	TR
53.907	2.0	2-back	1.0	1.0	0.406	r	TL
55.92	2.0	2-back	0.0	1.0	0.624	l	BR
57.933	2.0	2-back	0.0	1.0	0.759	n	BL
59.945	2.0	2-back	1.0	1.0	0.331	s	BR
61.958	2.0	2-back	0.0	1.0	1.051	f	BR
63.97	2.0	2-back	0.0	1.0	0.909	g	BL
65.983	2.0	2-back	0.0	1.0	0.876	p	TR
67.995	2.0	2-back	1.0	1.0	0.341	v	BL
70.008	2.0	2-back	0.0	1.0	0.64	t	BR
72.02	2.0	2-back	1.0	0.0	0.907	t	BL
74.033	2.0	2-back	0.0	1.0	0.957	z	TL
76.046	2.0	2-back	0.0	1.0	0.527	f	TR
78.058	2.0	2-back	1.0	0.0	0.744	p	TL
80.071	2.0	2-back	1.0	1.0	1.062	g	TR
82.083	2.0	2-back	0.0	1.0	0.724	c	BL
84.096	2.0	2-back	1.0	1.0	0.996	r	TR
86.108	2.0	2-back	0.0	1.0	0.771	p	BR
88.121	2.0	2-back	0.0	1.0	0.723	x	TL
90.133	2.0	2-back	0.0	1.0	0.823	l	TR
92.146	2.0	2-back	0.0	1.0	0.914	z	BL
94.159	2.0	2-back	0.0	1.0	0.939	c	BR
96.171	2.0	2-back	1.0	1.0	0.709	n	BL
98.184	2.0	2-back	1.0	0.0	0.758	v	BR
104.234	2.0	baseline	1.0	1.0	0.537	redcross.bmp	n/a
106.274	2.0	baseline	n/a	1.0	n/a	blackcross.bmp	n/a
108.313	2.0	baseline	n/a	1.0	n/a	blackcross.bmp	n/a
110.352	2.0	baseline	n/a	1.0	n/a	blackcross.bmp	n/a
112.391	2.0	baseline	1.0	1.0	0.368	redcross.bmp	n/a
114.43	2.0	baseline	n/a	1.0	n/a	blackcross.bmp	n/a
116.47	2.0	baseline	n/a	1.0	n/a	blackcross.bmp	n/a
118.509	2.0	baseline	1.0	1.0	0.523	redcross.bmp	n/a
120.548	2.0	baseline	n/a	1.0	n/a	blackcross.bmp	n/a
122.587	2.0	baseline	n/a	1.0	n/a	blackcross.bmp	n/a
124.626	2.0	baseline	1.0	1.0	0.315	redcross.bmp	n/a
126.666	2.0	baseline	n/a	1.0	n/a	blackcross.bmp	n/a
132.704	1.8	no_response	n/a	1.0	n/a	t	TR
134.503	2.0	1-back	0.0	0.0	n/a	c	BR
136.515	2.0	1-back	0.0	1.0	0.727	n	BL
138.528	2.0	1-back	1.0	1.0	0.604	l	BL
140.541	2.0	1-back	0.0	1.0	0.415	g	TR
142.553	2.0	1-back	0.0	1.0	0.585	f	TL
144.566	2.0	1-back	1.0	1.0	0.359	p	TL
146.578	2.0	1-back	0.0	1.0	0.615	x	TR
148.591	2.0	1-back	1.0	1.0	0.395	n	TR
150.603	2.0	1-back	0.0	1.0	0.316	s	TL
152.616	2.0	1-back	0.0	1.0	0.491	r	BR
154.628	2.0	1-back	1.0	1.0	0.486	v	BR
156.641	2.0	1-back	0.0	1.0	0.282	l	TL
158.653	2.0	1-back	1.0	1.0	0.684	z	TL
160.666	2.0	1-back	0.0	1.0	0.51	c	TR
162.679	2.0	1-back	0.0	1.0	0.578	f	BL
164.691	2.0	1-back	0.0	1.0	0.906	p	TR
166.704	2.0	1-back	1.0	1.0	0.913	t	TR
168.716	2.0	1-back	0.0	1.0	0.827	g	BL
170.729	2.0	1-back	1.0	0.0	0.469	x	BL
172.741	2.0	1-back	0.0	1.0	0.418	c	TR
174.754	2.0	1-back	1.0	1.0	0.597	p	TR
176.766	2.0	1-back	0.0	1.0	0.485	z	TL
178.779	2.0	1-back	0.0	1.0	0.738	r	BL
180.792	2.0	1-back	1.0	0.0	0.698	n	BL
182.804	2.0	1-back	0.0	1.0	0.562	z	BR
184.817	2.0	1-back	0.0	1.0	0.49	f	BL
186.829	2.0	1-back	0.0	1.0	0.549	s	TL
188.842	2.0	1-back	0.0	1.0	0.718	v	BR
190.854	2.0	1-back	1.0	1.0	0.788	c	BR
192.867	2.0	1-back	0.0	1.0	0.758	z	TL
194.879	2.0	1-back	1.0	0.0	0.79	r	TL
196.892	2.0	1-back	0.0	1.0	0.848	l	TR
198.905	2.0	1-back	1.0	1.0	0.374	n	TR
200.917	2.0	1-back	0.0	1.0	0.562	v	BR
202.93	2.0	1-back	1.0	1.0	1.135	f	BR
204.942	2.0	1-back	0.0	1.0	0.569	r	TL
206.955	2.0	1-back	1.0	1.0	0.353	l	TL
208.967	2.0	1-back	0.0	1.0	0.677	x	BR
210.98	2.0	1-back	0.0	1.0	0.769	s	BL
212.992	2.0	1-back	0.0	1.0	0.854	g	TL
215.005	2.0	1-back	0.0	1.0	0.817	t	BL
217.017	2.0	1-back	0.0	1.0	0.688	p	BR
219.03	2.0	1-back	0.0	1.0	0.718	s	BL
221.043	2.0	1-back	1.0	1.0	0.795	x	BL
223.055	2.0	1-back	0.0	1.0	0.666	v	TR
225.068	2.0	1-back	0.0	1.0	0.717	t	BR
227.08	2.0	1-back	1.0	1.0	0.751	g	BR
233.131	2.0	baseline	n/a	1.0	n/a	blackcross.bmp	n/a
235.17	2.0	baseline	1.0	1.0	0.351	redcross.bmp	n/a
237.209	2.0	baseline	n/a	1.0	n/a	blackcross.bmp	n/a
239.249	2.0	baseline	1.0	1.0	0.327	redcross.bmp	n/a
241.288	2.0	baseline	1.0	1.0	0.484	redcross.bmp	n/a
243.327	2.0	baseline	n/a	1.0	n/a	blackcross.bmp	n/a
245.366	2.0	baseline	n/a	1.0	n/a	blackcross.bmp	n/a
247.405	2.0	baseline	n/a	1.0	n/a	blackcross.bmp	n/a
249.445	2.0	baseline	n/a	1.0	n/a	blackcross.bmp	n/a
251.484	2.0	baseline	1.0	1.0	0.418	redcross.bmp	n/a
253.523	2.0	baseline	n/a	1.0	n/a	blackcross.bmp	n/a
255.562	2.0	baseline	n/a	1.0	n/a	blackcross.bmp	n/a
