onset	duration	trial_type	correct_response	accuracy	response_time	stimulus	position
4.048	1.8	no_response	n/a	1.0	n/a	c	TR
5.854	1.8	no_response	n/a	1.0	n/a	g	BL
7.659	2.0	2-back	1.0	1.0	1.018	c	BL
9.698	2.0	2-back	0.0	1.0	1.155	p	TR
11.721	2.0	2-back	0.0	1.0	1.14	v	TL
13.744	2.0	2-back	1.0	1.0	0.851	p	TL
15.767	2.0	2-back	0.0	1.0	0.709	s	BL
17.789	2.0	2-back	0.0	1.0	0.729	x	TR
19.812	2.0	2-back	1.0	1.0	0.607	s	TR
21.835	2.0	2-back	1.0	1.0	0.822	x	TL
23.858	2.0	2-back	0.0	1.0	0.553	n	BR
25.88	2.0	2-back	0.0	1.0	0.576	f	BL
27.903	2.0	2-back	1.0	1.0	0.533	n	TL
29.926	2.0	2-back	0.0	1.0	0.575	t	TL
31.949	2.0	2-back	0.0	1.0	0.634	l	TR
33.971	2.0	2-back	0.0	1.0	0.662	r	BR
35.994	2.0	2-back	1.0	1.0	0.654	l	TL
38.017	2.0	2-back	0.0	1.0	0.863	z	TL
40.04	2.0	2-back	0.0	1.0	0.792	v	BL
42.062	2.0	2-back	0.0	1.0	0.661	t	BR
44.085	2.0	2-back	0.0	1.0	0.867	g	TL
46.108	2.0	2-back	1.0	1.0	0.691	t	BL
48.13	2.0	2-back	0.0	1.0	0.719	f	BR
50.153	2.0	2-back	0.0	1.0	0.466	r	BR
52.176	2.0	2-back	1.0	1.0	0.588	f	TR
54.199	2.0	2-back	0.0	1.0	0.41	z	BL
56.221	2.0	2-back	0.0	1.0	0.564	c	BR
58.244	2.0	2-back	0.0	1.0	0.635	g	TR
60.267	2.0	2-back	1.0	1.0	0.542	c	BL
62.29	2.0	2-back	0.0	1.0	0.422	p	BR
64.312	2.0	2-back	0.0	1.0	0.456	v	BR
66.335	2.0	2-back	1.0	1.0	0.808	p	TR
68.358	2.0	2-back	0.0	1.0	0.559	s	TL
70.381	2.0	2-back	0.0	1.0	0.599	t	BR
72.403	2.0	2-back	1.0	1.0	0.622	s	TR
74.426	2.0	2-back	0.0	1.0	0.569	r	TL
76.449	2.0	2-back	0.0	1.0	0.821	z	BL
78.472	2.0	2-back	1.0	1.0	0.741	r	TR
80.494	2.0	2-back	1.0	0.0	0.475	z	BR
82.517	2.0	2-back	0.0	1.0	0.687	n	TL
84.54	2.0	2-back	0.0	0.0	0.624	g	TR
86.562	2.0	2-back	1.0	0.0	0.394	n	BL
88.585	2.0	2-back	0.0	1.0	0.703	x	BR
90.608	2.0	2-back	0.0	1.0	1.019	v	TR
92.631	2.0	2-back	1.0	1.0	0.784	x	BL
94.653	2.0	2-back	0.0	1.0	0.586	l	BL
96.676	2.0	2-back	0.0	1.0	0.843	f	TL
98.699	2.0	2-back	1.0	1.0	0.505	l	BR
104.752	2.0	baseline	n/a	1.0	n/a	blackcross.bmp	n/a
106.792	2.0	baseline	1.0	1.0	0.343	redcross.bmp	n/a
108.831	2.0	baseline	n/a	1.0	n/a	blackcross.bmp	n/a
110.87	2.0	baseline	1.0	1.0	0.313	redcross.bmp	n/a
112.91	2.0	baseline	n/a	1.0	n/a	blackcross.bmp	n/a
114.949	2.0	baseline	n/a	1.0	n/a	blackcross.bmp	n/a
116.989	2.0	baseline	n/a	1.0	n/a	blackcross.bmp	n/a
119.028	2.0	baseline	1.0	1.0	0.41	redcross.bmp	n/a
121.068	2.0	baseline	n/a	1.0	n/a	blackcross.bmp	n/a
123.107	2.0	baseline	1.0	1.0	0.473	redcross.bmp	n/a
125.147	2.0	baseline	n/a	1.0	n/a	blackcross.bmp	n/a
127.186	2.0	baseline	n/a	1.0	n/a	blackcross.bmp	n/a
133.219	1.8	no_response	n/a	1.0	n/a	v	TR
135.024	2.0	1-back	1.0	1.0	0.838	v	BL
137.047	2.0	1-back	0.0	1.0	0.501	p	TR
139.07	2.0	1-back	0.0	1.0	0.657	g	BL
141.093	2.0	1-back	1.0	1.0	0.689	g	TL
143.115	2.0	1-back	0.0	1.0	0.432	z	BR
145.138	2.0	1-back	0.0	1.0	0.783	l	TL
147.161	2.0	1-back	0.0	1.0	0.581	t	BL
149.184	2.0	1-back	1.0	0.0	0.845	t	TR
151.206	2.0	1-back	0.0	1.0	0.701	s	BR
153.229	2.0	1-back	0.0	1.0	0.945	l	TL
155.252	2.0	1-back	0.0	1.0	0.822	x	BR
157.275	2.0	1-back	1.0	1.0	0.642	x	TR
159.297	2.0	1-back	1.0	0.0	0.283	x	TL
161.32	2.0	1-back	0.0	1.0	0.549	s	TR
163.343	2.0	1-back	1.0	1.0	0.625	s	BL
165.366	2.0	1-back	0.0	1.0	0.673	n	TR
167.388	2.0	1-back	0.0	0.0	0.867	r	TL
169.411	2.0	1-back	0.0	1.0	0.444	s	TR
171.434	2.0	1-back	0.0	1.0	0.677	t	BL
173.456	2.0	1-back	1.0	1.0	0.636	t	TR
175.479	2.0	1-back	0.0	1.0	0.516	l	BR
177.502	2.0	1-back	0.0	1.0	0.603	r	BL
179.525	2.0	1-back	0.0	0.0	0.643	f	TL
181.547	2.0	1-back	1.0	1.0	0.667	f	BL
183.57	2.0	1-back	0.0	1.0	0.251	z	BR
185.593	2.0	1-back	1.0	1.0	0.211	z	BL
187.616	2.0	1-back	0.0	1.0	0.457	c	TL
189.638	2.0	1-back	1.0	0.0	0.484	c	TR
191.661	2.0	1-back	0.0	1.0	0.586	p	BR
193.684	2.0	1-back	1.0	1.0	0.621	p	BL
195.707	2.0	1-back	0.0	1.0	0.602	n	TL
197.729	2.0	1-back	1.0	0.0	0.53	n	TR
199.752	2.0	1-back	0.0	1.0	0.573	f	BL
201.775	2.0	1-back	1.0	0.0	0.639	f	BR
203.797	2.0	1-back	0.0	0.0	0.639	l	TL
205.82	2.0	1-back	0.0	0.0	1.108	r	BR
207.843	2.0	1-back	1.0	1.0	0.735	r	TL
209.866	2.0	1-back	0.0	1.0	0.522	z	BR
211.888	2.0	1-back	0.0	0.0	0.579	n	BL
213.911	2.0	1-back	0.0	1.0	0.423	c	TL
215.934	2.0	1-back	1.0	1.0	0.574	c	TR
217.957	2.0	1-back	0.0	1.0	0.596	v	BR
219.979	2.0	1-back	1.0	1.0	0.604	v	TL
222.002	2.0	1-back	0.0	1.0	0.797	x	TR
224.025	2.0	1-back	0.0	1.0	0.515	g	BR
226.048	2.0	1-back	0.0	1.0	0.704	p	BL
228.07	2.0	1-back	0.0	0.0	0.661	g	BR
234.124	2.0	baseline	n/a	1.0	n/a	blackcross.bmp	n/a
236.163	2.0	baseline	n/a	1.0	n/a	blackcross.bmp	n/a
238.202	2.0	baseline	1.0	1.0	0.363	redcross.bmp	n/a
240.242	2.0	baseline	1.0	1.0	0.4	redcross.bmp	n/a
242.281	2.0	baseline	n/a	1.0	n/a	blackcross.bmp	n/a
244.321	2.0	baseline	n/a	1.0	n/a	blackcross.bmp	n/a
246.36	2.0	baseline	n/a	1.0	n/a	blackcross.bmp	n/a
248.4	2.0	baseline	1.0	1.0	0.437	redcross.bmp	n/a
250.439	2.0	baseline	n/a	1.0	n/a	blackcross.bmp	n/a
252.479	2.0	baseline	n/a	1.0	n/a	blackcross.bmp	n/a
254.518	2.0	baseline	1.0	1.0	0.349	redcross.bmp	n/a
256.558	2.0	baseline	n/a	1.0	n/a	blackcross.bmp	n/a
