onset	duration	trial_type	correct_response	accuracy	response_time	stimulus	position
4.015	1.8	no_response	n/a	1.0	n/a	c	BL
5.82	1.8	no_response	n/a	0.0	1.431	l	TR
7.626	2.0	2-back	1.0	0.0	0.899	v	BL
9.632	2.0	2-back	1.0	0.0	0.719	p	TR
11.638	2.0	2-back	0.0	1.0	0.672	r	TL
13.644	2.0	2-back	0.0	1.0	0.636	t	BR
15.65	2.0	2-back	1.0	1.0	0.842	n	TL
17.656	2.0	2-back	0.0	1.0	0.638	s	TR
19.662	2.0	2-back	0.0	1.0	0.728	f	BL
21.668	2.0	2-back	1.0	0.0	0.755	x	TR
23.674	2.0	2-back	0.0	1.0	1.001	v	BR
25.68	2.0	2-back	0.0	1.0	1.173	p	TL
27.686	2.0	2-back	1.0	0.0	0.667	f	BR
29.692	2.0	2-back	1.0	0.0	0.52	n	TL
31.698	2.0	2-back	0.0	1.0	0.372	x	TR
33.704	2.0	2-back	1.0	0.0	0.605	t	TL
35.71	2.0	2-back	0.0	1.0	0.758	s	BL
37.716	2.0	2-back	0.0	1.0	0.762	l	TR
39.722	2.0	2-back	1.0	1.0	1.061	f	BL
41.728	2.0	2-back	1.0	1.0	1.058	c	TR
43.734	2.0	2-back	0.0	1.0	1.003	r	TL
45.74	2.0	2-back	1.0	1.0	1.0	g	TR
47.746	2.0	2-back	0.0	1.0	0.432	s	BL
49.752	2.0	2-back	0.0	1.0	0.581	r	BR
51.758	2.0	2-back	1.0	0.0	0.69	v	BL
53.764	2.0	2-back	0.0	0.0	0.723	p	BL
55.77	2.0	2-back	0.0	1.0	0.604	t	TL
57.776	2.0	2-back	1.0	1.0	0.855	x	BL
59.782	2.0	2-back	0.0	1.0	0.581	z	BR
61.788	2.0	2-back	0.0	1.0	0.58	t	TR
63.794	2.0	2-back	0.0	1.0	0.477	g	TL
65.8	2.0	2-back	1.0	1.0	0.772	c	TR
67.806	2.0	2-back	0.0	1.0	0.627	p	BL
69.812	2.0	2-back	0.0	1.0	0.47	s	BR
71.818	2.0	2-back	0.0	1.0	0.547	v	TL
73.824	2.0	2-back	1.0	0.0	0.441	n	BR
75.83	2.0	2-back	0.0	1.0	0.669	c	BL
77.836	2.0	2-back	0.0	1.0	0.66	l	TL
79.842	2.0	2-back	0.0	1.0	0.536	x	BR
81.848	2.0	2-back	1.0	0.0	0.387	z	TL
83.854	2.0	2-back	0.0	0.0	0.156	g	TR
85.86	2.0	2-back	0.0	1.0	0.134	f	BR
87.866	2.0	2-back	0.0	1.0	0.502	z	TL
89.872	2.0	2-back	1.0	1.0	0.406	l	BR
91.878	2.0	2-back	0.0	1.0	0.551	r	TR
93.884	2.0	2-back	1.0	0.0	0.545	z	BR
95.89	2.0	2-back	0.0	1.0	0.768	n	BL
97.896	2.0	2-back	1.0	1.0	0.738	g	BR
103.933	2.0	baseline	n/a	1.0	n/a	blackcross.bmp	n/a
105.973	2.0	baseline	n/a	1.0	n/a	blackcross.bmp	n/a
108.012	2.0	baseline	n/a	1.0	n/a	blackcross.bmp	n/a
110.051	2.0	baseline	1.0	1.0	0.47	redcross.bmp	n/a
112.091	2.0	baseline	n/a	1.0	n/a	blackcross.bmp	n/a
114.13	2.0	baseline	1.0	1.0	0.598	redcross.bmp	n/a
116.17	2.0	baseline	n/a	1.0	n/a	blackcross.bmp	n/a
118.209	2.0	baseline	n/a	1.0	n/a	blackcross.bmp	n/a
120.249	2.0	baseline	1.0	1.0	0.622	redcross.bmp	n/a
122.288	2.0	baseline	n/a	1.0	n/a	blackcross.bmp	n/a
124.328	2.0	baseline	n/a	1.0	n/a	blackcross.bmp	n/a
126.367	2.0	baseline	1.0	1.0	0.439	redcross.bmp	n/a
132.4	1.8	no_response	n/a	1.0	n/a	p	TR
134.205	2.0	1-back	0.0	1.0	0.675	f	BL
136.211	2.0	1-back	1.0	0.0	0.44	n	BL
138.217	2.0	1-back	0.0	1.0	0.669	x	TR
140.223	2.0	1-back	0.0	1.0	0.622	c	TL
142.23	2.0	1-back	1.0	1.0	0.551	p	TL
144.236	2.0	1-back	0.0	1.0	0.571	n	BL
146.242	2.0	1-back	0.0	1.0	0.58	c	TR
148.248	2.0	1-back	1.0	0.0	0.535	g	TR
150.254	2.0	1-back	0.0	1.0	0.711	n	TL
152.26	2.0	1-back	0.0	1.0	0.663	s	BR
154.266	2.0	1-back	0.0	1.0	0.609	x	BL
156.272	2.0	1-back	0.0	1.0	0.62	t	TL
158.278	2.0	1-back	1.0	1.0	0.644	g	TL
160.284	2.0	1-back	0.0	1.0	0.543	p	BR
162.29	2.0	1-back	0.0	1.0	0.618	c	TL
164.296	2.0	1-back	1.0	1.0	0.646	r	TL
166.302	2.0	1-back	0.0	1.0	0.687	t	BL
168.308	2.0	1-back	1.0	0.0	0.583	v	BL
170.314	2.0	1-back	0.0	1.0	0.561	g	BR
172.32	2.0	1-back	0.0	1.0	0.552	p	TL
174.326	2.0	1-back	0.0	1.0	0.815	x	BR
176.332	2.0	1-back	1.0	1.0	0.482	z	BR
178.338	2.0	1-back	0.0	1.0	0.564	l	TR
180.344	2.0	1-back	1.0	1.0	0.529	v	TR
182.35	2.0	1-back	0.0	1.0	0.633	n	BR
184.356	2.0	1-back	0.0	1.0	0.912	r	BL
186.362	2.0	1-back	1.0	1.0	0.648	s	BL
188.368	2.0	1-back	0.0	1.0	0.539	z	TR
190.374	2.0	1-back	0.0	1.0	0.689	l	TL
192.38	2.0	1-back	0.0	1.0	0.545	g	BR
194.386	2.0	1-back	1.0	1.0	0.579	f	BR
196.392	2.0	1-back	0.0	1.0	0.846	t	TR
198.398	2.0	1-back	0.0	1.0	0.554	z	TL
200.404	2.0	1-back	1.0	0.0	0.331	l	TL
202.41	2.0	1-back	0.0	1.0	0.389	f	BL
204.416	2.0	1-back	0.0	1.0	0.666	t	TR
206.422	2.0	1-back	1.0	1.0	0.59	r	TR
208.428	2.0	1-back	0.0	1.0	0.382	l	BR
210.434	2.0	1-back	1.0	0.0	0.393	z	BR
212.44	2.0	1-back	0.0	0.0	0.303	r	TR
214.446	2.0	1-back	1.0	1.0	0.546	v	TR
216.452	2.0	1-back	0.0	1.0	0.556	s	BL
218.458	2.0	1-back	1.0	0.0	0.674	f	BL
220.464	2.0	1-back	0.0	1.0	0.965	v	TL
222.47	2.0	1-back	0.0	1.0	0.837	x	BR
224.476	2.0	1-back	1.0	0.0	0.859	c	BR
226.482	2.0	1-back	0.0	1.0	0.75	s	BL
232.519	2.0	baseline	n/a	1.0	n/a	blackcross.bmp	n/a
234.558	2.0	baseline	n/a	1.0	n/a	blackcross.bmp	n/a
236.598	2.0	baseline	1.0	1.0	0.558	redcross.bmp	n/a
238.637	2.0	baseline	1.0	1.0	0.411	redcross.bmp	n/a
240.677	2.0	baseline	n/a	1.0	n/a	blackcross.bmp	n/a
242.716	2.0	baseline	n/a	1.0	n/a	blackcross.bmp	n/a
244.756	2.0	baseline	1.0	1.0	0.447	redcross.bmp	n/a
246.795	2.0	baseline	n/a	1.0	n/a	blackcross.bmp	n/a
248.834	2.0	baseline	n/a	1.0	n/a	blackcross.bmp	n/a
250.874	2.0	baseline	n/a	1.0	n/a	blackcross.bmp	n/a
252.913	2.0	baseline	1.0	1.0	0.336	redcross.bmp	n/a
254.953	2.0	baseline	n/a	1.0	n/a	blackcross.bmp	n/a
