onset	duration	trial_type	correct_response	accuracy	response_time	stimulus	position
4.026	1.8	no_response	n/a	1.0	n/a	c	BL
5.825	1.8	no_response	n/a	1.0	n/a	p	BR
7.624	2.0	2-back	1.0	1.0	0.685	n	BL
9.64	2.0	2-back	0.0	1.0	0.573	x	TR
11.656	2.0	2-back	0.0	1.0	0.516	g	TL
13.671	2.0	2-back	1.0	1.0	0.421	p	TR
15.687	2.0	2-back	1.0	1.0	0.484	c	TL
17.703	2.0	2-back	0.0	1.0	0.606	x	BL
19.719	2.0	2-back	1.0	1.0	0.722	l	TL
21.734	2.0	2-back	0.0	1.0	0.61	v	TR
23.75	2.0	2-back	0.0	1.0	0.663	g	TR
25.766	2.0	2-back	0.0	1.0	0.823	t	BR
27.781	2.0	2-back	0.0	1.0	0.639	z	BL
29.797	2.0	2-back	1.0	1.0	0.49	n	BR
31.813	2.0	2-back	0.0	1.0	0.597	f	TL
33.829	2.0	2-back	0.0	1.0	0.624	n	TR
35.844	2.0	2-back	1.0	1.0	0.648	t	TL
37.86	2.0	2-back	0.0	1.0	0.622	v	BL
39.876	2.0	2-back	1.0	0.0	0.692	l	TL
41.892	2.0	2-back	0.0	1.0	0.86	r	TL
43.907	2.0	2-back	0.0	1.0	0.628	s	BR
45.923	2.0	2-back	0.0	1.0	0.6	v	BL
47.939	2.0	2-back	1.0	1.0	0.815	n	BR
49.954	2.0	2-back	0.0	1.0	0.525	p	TL
51.97	2.0	2-back	0.0	1.0	0.841	s	TR
53.986	2.0	2-back	0.0	1.0	0.622	g	BR
56.002	2.0	2-back	0.0	1.0	0.861	p	BL
58.017	2.0	2-back	1.0	1.0	0.782	f	BR
60.033	2.0	2-back	0.0	1.0	0.491	r	TR
62.049	2.0	2-back	0.0	1.0	0.548	s	BL
64.065	2.0	2-back	1.0	1.0	0.637	z	TR
66.08	2.0	2-back	1.0	0.0	0.635	x	BL
68.096	2.0	2-back	0.0	1.0	0.653	c	TL
70.112	2.0	2-back	0.0	1.0	0.642	r	TR
72.127	2.0	2-back	0.0	1.0	0.605	v	BR
74.143	2.0	2-back	0.0	0.0	0.691	l	TL
76.159	2.0	2-back	1.0	0.0	0.482	c	BR
78.175	2.0	2-back	0.0	1.0	0.613	s	TR
80.19	2.0	2-back	1.0	1.0	0.767	t	BR
82.206	2.0	2-back	0.0	1.0	0.654	r	BL
84.222	2.0	2-back	0.0	1.0	0.653	f	TL
86.237	2.0	2-back	1.0	1.0	0.624	z	BL
88.253	2.0	2-back	0.0	1.0	0.67	l	TR
90.269	2.0	2-back	0.0	0.0	0.922	x	TL
92.285	2.0	2-back	1.0	0.0	0.943	f	TR
94.3	2.0	2-back	0.0	1.0	0.928	g	BR
96.316	2.0	2-back	0.0	1.0	0.712	t	BL
98.332	2.0	2-back	1.0	0.0	0.827	z	BR
104.395	2.0	baseline	n/a	1.0	n/a	blackcross.bmp	n/a
106.444	2.0	baseline	1.0	1.0	0.391	redcross.bmp	n/a
108.494	2.0	baseline	n/a	1.0	n/a	blackcross.bmp	n/a
110.543	2.0	baseline	1.0	1.0	0.36	redcross.bmp	n/a
112.592	2.0	baseline	n/a	1.0	n/a	blackcross.bmp	n/a
114.641	2.0	baseline	n/a	1.0	n/a	blackcross.bmp	n/a
116.69	2.0	baseline	n/a	1.0	n/a	blackcross.bmp	n/a
118.739	2.0	baseline	n/a	1.0	n/a	blackcross.bmp	n/a
120.788	2.0	baseline	1.0	1.0	0.545	redcross.bmp	n/a
122.837	2.0	baseline	n/a	1.0	n/a	blackcross.bmp	n/a
124.886	2.0	baseline	n/a	1.0	n/a	blackcross.bmp	n/a
126.935	2.0	baseline	1.0	1.0	0.424	redcross.bmp	n/a
130.983	1.8	no_response	n/a	1.0	n/a	v	TR
132.782	2.0	1-back	0.0	1.0	0.493	p	TL
134.798	2.0	1-back	0.0	1.0	0.727	z	BL
136.814	2.0	1-back	1.0	1.0	0.486	c	BL
138.83	2.0	1-back	0.0	1.0	0.502	t	TR
140.845	2.0	1-back	0.0	1.0	0.577	l	TL
142.861	2.0	1-back	1.0	1.0	0.678	c	TL
144.877	2.0	1-back	0.0	1.0	0.596	v	BL
146.892	2.0	1-back	0.0	1.0	0.501	n	BR
148.908	2.0	1-back	1.0	1.0	0.868	l	BR
150.924	2.0	1-back	0.0	1.0	0.566	v	TL
152.94	2.0	1-back	0.0	1.0	0.847	c	BR
154.955	2.0	1-back	0.0	1.0	0.693	r	TR
156.971	2.0	1-back	1.0	1.0	0.726	t	TR
158.987	2.0	1-back	0.0	1.0	0.641	n	BL
161.003	2.0	1-back	1.0	1.0	0.72	s	BL
163.018	2.0	1-back	0.0	1.0	0.824	v	TR
165.034	2.0	1-back	0.0	1.0	0.705	p	TL
167.05	2.0	1-back	1.0	1.0	0.633	c	TL
169.065	2.0	1-back	0.0	1.0	0.655	g	TR
171.081	2.0	1-back	1.0	1.0	0.788	z	TR
173.097	2.0	1-back	0.0	1.0	0.638	x	BR
175.113	2.0	1-back	0.0	1.0	0.558	g	BL
177.128	2.0	1-back	0.0	1.0	0.666	l	TL
179.144	2.0	1-back	0.0	1.0	0.907	r	BL
181.16	2.0	1-back	1.0	1.0	0.628	x	BL
183.176	2.0	1-back	0.0	1.0	0.483	f	BR
185.191	2.0	1-back	0.0	1.0	0.693	z	TR
187.207	2.0	1-back	1.0	1.0	0.726	r	TR
189.223	2.0	1-back	0.0	1.0	0.583	f	BL
191.238	2.0	1-back	1.0	1.0	0.818	n	BL
193.254	2.0	1-back	0.0	1.0	0.569	x	TR
195.27	2.0	1-back	1.0	1.0	0.833	t	TR
197.286	2.0	1-back	0.0	1.0	0.686	p	BR
199.301	2.0	1-back	1.0	1.0	0.859	x	BR
201.317	2.0	1-back	0.0	1.0	0.548	t	TL
203.333	2.0	1-back	1.0	1.0	0.683	s	TL
205.348	2.0	1-back	0.0	1.0	0.629	f	BL
207.364	2.0	1-back	0.0	1.0	0.539	l	BR
209.38	2.0	1-back	1.0	1.0	0.738	g	BR
211.396	2.0	1-back	0.0	1.0	0.611	n	TL
213.411	2.0	1-back	0.0	1.0	0.696	s	TR
215.427	2.0	1-back	0.0	1.0	0.585	p	BR
217.443	2.0	1-back	0.0	1.0	0.709	r	TL
219.459	2.0	1-back	1.0	1.0	0.783	s	TL
221.474	2.0	1-back	0.0	1.0	0.764	g	BR
223.49	2.0	1-back	1.0	1.0	0.747	z	BR
225.506	2.0	1-back	0.0	1.0	0.694	f	BL
231.569	2.0	baseline	n/a	1.0	n/a	blackcross.bmp	n/a
233.618	2.0	baseline	1.0	1.0	0.315	redcross.bmp	n/a
235.667	2.0	baseline	n/a	1.0	n/a	blackcross.bmp	n/a
237.716	2.0	baseline	1.0	1.0	0.335	redcross.bmp	n/a
239.765	2.0	baseline	n/a	1.0	n/a	blackcross.bmp	n/a
241.815	2.0	baseline	n/a	1.0	n/a	blackcross.bmp	n/a
243.864	2.0	baseline	1.0	1.0	0.385	redcross.bmp	n/a
245.913	2.0	baseline	n/a	1.0	n/a	blackcross.bmp	n/a
247.962	2.0	baseline	n/a	1.0	n/a	blackcross.bmp	n/a
250.011	2.0	baseline	n/a	1.0	n/a	blackcross.bmp	n/a
252.06	2.0	baseline	1.0	1.0	0.434	redcross.bmp	n/a
254.109	2.0	baseline	n/a	1.0	n/a	blackcross.bmp	n/a
