onset	duration	trial_type	correct_response	accuracy	response_time	stimulus	position
4.026	1.8	no_response	n/a	1.0	n/a	r	TL
5.825	1.8	no_response	n/a	1.0	n/a	p	TR
7.624	2.0	2-back	0.0	1.0	0.535	x	BL
9.64	2.0	2-back	1.0	1.0	0.695	t	TR
11.656	2.0	2-back	0.0	1.0	0.629	g	TL
13.671	2.0	2-back	0.0	0.0	0.856	n	BL
15.687	2.0	2-back	1.0	1.0	0.693	z	TL
17.703	2.0	2-back	0.0	1.0	0.792	c	TR
19.718	2.0	2-back	0.0	1.0	0.541	v	BR
21.734	2.0	2-back	0.0	1.0	0.837	n	BL
23.75	2.0	2-back	1.0	1.0	0.583	g	BR
25.766	2.0	2-back	0.0	1.0	0.717	s	TL
27.781	2.0	2-back	0.0	1.0	0.829	v	TR
29.797	2.0	2-back	1.0	0.0	0.461	l	TL
31.813	2.0	2-back	1.0	1.0	0.647	f	TR
33.829	2.0	2-back	0.0	1.0	0.427	s	BR
35.844	2.0	2-back	0.0	1.0	0.593	c	TL
37.86	2.0	2-back	0.0	1.0	0.575	r	BL
39.876	2.0	2-back	1.0	0.0	0.755	s	TL
41.891	2.0	2-back	0.0	1.0	0.532	l	BR
43.907	2.0	2-back	0.0	1.0	0.529	z	BL
45.923	2.0	2-back	1.0	0.0	0.592	x	BR
47.939	2.0	2-back	0.0	1.0	0.779	f	TL
49.954	2.0	2-back	0.0	0.0	0.646	t	TL
51.97	2.0	2-back	0.0	1.0	0.486	x	TR
53.986	2.0	2-back	1.0	1.0	0.783	r	TL
56.002	2.0	2-back	0.0	1.0	0.532	l	BR
58.017	2.0	2-back	0.0	1.0	0.613	n	BL
60.033	2.0	2-back	1.0	0.0	0.753	s	BR
62.049	2.0	2-back	0.0	0.0	n/a	f	BR
64.064	2.0	2-back	0.0	1.0	0.687	g	BL
66.08	2.0	2-back	0.0	1.0	0.677	p	TR
68.096	2.0	2-back	1.0	1.0	0.655	v	BL
70.112	2.0	2-back	0.0	1.0	0.611	t	BR
72.127	2.0	2-back	1.0	1.0	1.098	t	BL
74.143	2.0	2-back	0.0	1.0	0.611	z	TL
76.159	2.0	2-back	0.0	1.0	0.516	f	TR
78.174	2.0	2-back	1.0	1.0	0.586	p	TL
80.19	2.0	2-back	1.0	0.0	0.442	g	TR
82.206	2.0	2-back	0.0	1.0	0.702	c	BL
84.222	2.0	2-back	1.0	1.0	0.575	r	TR
86.237	2.0	2-back	0.0	1.0	0.536	p	BR
88.253	2.0	2-back	0.0	1.0	0.512	x	TL
90.269	2.0	2-back	0.0	1.0	0.895	l	TR
92.285	2.0	2-back	0.0	1.0	0.68	z	BL
94.3	2.0	2-back	0.0	1.0	0.656	c	BR
96.316	2.0	2-back	1.0	1.0	0.45	n	BL
98.332	2.0	2-back	1.0	0.0	0.433	v	BR
104.395	2.0	baseline	1.0	1.0	0.501	redcross.bmp	n/a
106.444	2.0	baseline	n/a	1.0	n/a	blackcross.bmp	n/a
108.493	2.0	baseline	n/a	1.0	n/a	blackcross.bmp	n/a
110.542	2.0	baseline	n/a	1.0	n/a	blackcross.bmp	n/a
112.592	2.0	baseline	1.0	1.0	0.42	redcross.bmp	n/a
114.641	2.0	baseline	n/a	1.0	n/a	blackcross.bmp	n/a
116.69	2.0	baseline	n/a	1.0	n/a	blackcross.bmp	n/a
118.739	2.0	baseline	1.0	1.0	0.413	redcross.bmp	n/a
120.788	2.0	baseline	n/a	1.0	n/a	blackcross.bmp	n/a
122.837	2.0	baseline	n/a	1.0	n/a	blackcross.bmp	n/a
124.886	2.0	baseline	1.0	1.0	0.399	redcross.bmp	n/a
126.935	2.0	baseline	n/a	1.0	n/a	blackcross.bmp	n/a
132.982	1.8	no_response	n/a	1.0	n/a	t	TR
134.781	2.0	1-back	0.0	1.0	0.652	c	BR
136.797	2.0	1-back	0.0	1.0	0.503	n	BL
138.813	2.0	1-back	1.0	1.0	0.465	l	BL
140.829	2.0	1-back	0.0	1.0	0.663	g	TR
142.844	2.0	1-back	0.0	1.0	0.586	f	TL
144.86	2.0	1-back	1.0	1.0	0.472	p	TL
146.876	2.0	1-back	0.0	1.0	0.508	x	TR
148.892	2.0	1-back	1.0	1.0	0.617	n	TR
150.907	2.0	1-back	0.0	1.0	0.467	s	TL
152.923	2.0	1-back	0.0	1.0	0.559	r	BR
154.939	2.0	1-back	1.0	1.0	0.699	v	BR
156.954	2.0	1-back	0.0	1.0	0.507	l	TL
158.97	2.0	1-back	1.0	1.0	0.574	z	TL
160.986	2.0	1-back	0.0	1.0	0.44	c	TR
163.002	2.0	1-back	0.0	1.0	0.774	f	BL
165.017	2.0	1-back	0.0	1.0	0.632	p	TR
167.033	2.0	1-back	1.0	1.0	0.446	t	TR
169.049	2.0	1-back	0.0	1.0	0.516	g	BL
171.064	2.0	1-back	1.0	1.0	0.762	x	BL
173.08	2.0	1-back	0.0	1.0	0.459	c	TR
175.096	2.0	1-back	1.0	1.0	0.59	p	TR
177.112	2.0	1-back	0.0	1.0	0.563	z	TL
179.127	2.0	1-back	0.0	1.0	0.475	r	BL
181.143	2.0	1-back	1.0	1.0	0.722	n	BL
183.159	2.0	1-back	0.0	1.0	0.436	z	BR
185.175	2.0	1-back	0.0	0.0	0.547	f	BL
187.19	2.0	1-back	0.0	1.0	0.473	s	TL
189.206	2.0	1-back	0.0	1.0	0.739	v	BR
191.222	2.0	1-back	1.0	0.0	0.676	c	BR
193.238	2.0	1-back	0.0	1.0	0.547	z	TL
195.253	2.0	1-back	1.0	1.0	0.749	r	TL
197.269	2.0	1-back	0.0	1.0	0.497	l	TR
199.285	2.0	1-back	1.0	1.0	0.759	n	TR
201.3	2.0	1-back	0.0	1.0	0.387	v	BR
203.316	2.0	1-back	1.0	0.0	0.426	f	BR
205.332	2.0	1-back	0.0	1.0	0.468	r	TL
207.348	2.0	1-back	1.0	1.0	0.617	l	TL
209.363	2.0	1-back	0.0	1.0	0.452	x	BR
211.379	2.0	1-back	0.0	1.0	0.653	s	BL
213.395	2.0	1-back	0.0	1.0	0.591	g	TL
215.41	2.0	1-back	0.0	0.0	0.519	t	BL
217.426	2.0	1-back	0.0	1.0	0.542	p	BR
219.442	2.0	1-back	0.0	1.0	0.903	s	BL
221.458	2.0	1-back	1.0	1.0	0.877	x	BL
223.473	2.0	1-back	0.0	1.0	0.575	v	TR
225.489	2.0	1-back	0.0	1.0	0.841	t	BR
227.505	2.0	1-back	1.0	1.0	0.613	g	BR
233.568	2.0	baseline	n/a	1.0	n/a	blackcross.bmp	n/a
235.617	2.0	baseline	1.0	1.0	0.402	redcross.bmp	n/a
237.667	2.0	baseline	n/a	1.0	n/a	blackcross.bmp	n/a
239.716	2.0	baseline	1.0	1.0	0.35	redcross.bmp	n/a
241.765	2.0	baseline	1.0	1.0	0.454	redcross.bmp	n/a
243.814	2.0	baseline	n/a	1.0	n/a	blackcross.bmp	n/a
245.863	2.0	baseline	n/a	1.0	n/a	blackcross.bmp	n/a
247.912	2.0	baseline	n/a	1.0	n/a	blackcross.bmp	n/a
249.961	2.0	baseline	n/a	1.0	n/a	blackcross.bmp	n/a
252.01	2.0	baseline	1.0	1.0	0.448	redcross.bmp	n/a
254.059	2.0	baseline	n/a	1.0	n/a	blackcross.bmp	n/a
256.108	2.0	baseline	n/a	1.0	n/a	blackcross.bmp	n/a
