onset	duration	trial_type	correct_response	accuracy	response_time	stimulus	position
4.026	1.8	no_response	n/a	1.0	n/a	c	BL
5.825	1.8	no_response	n/a	1.0	n/a	l	TR
7.624	2.0	2-back	1.0	1.0	0.519	v	BL
9.623	2.0	2-back	1.0	1.0	0.57	p	TR
11.622	2.0	2-back	0.0	1.0	0.802	r	TL
13.621	2.0	2-back	0.0	1.0	0.735	t	BR
15.62	2.0	2-back	1.0	1.0	0.841	n	TL
17.619	2.0	2-back	0.0	1.0	0.585	s	TR
19.618	2.0	2-back	0.0	1.0	0.52	f	BL
21.617	2.0	2-back	1.0	1.0	0.751	x	TR
23.617	2.0	2-back	0.0	1.0	0.588	v	BR
25.616	2.0	2-back	0.0	0.0	n/a	p	TL
27.615	2.0	2-back	1.0	1.0	0.848	f	BR
29.614	2.0	2-back	1.0	1.0	0.841	n	TL
31.613	2.0	2-back	0.0	1.0	0.697	x	TR
33.612	2.0	2-back	1.0	1.0	0.583	t	TL
35.611	2.0	2-back	0.0	1.0	0.552	s	BL
37.61	2.0	2-back	0.0	1.0	0.594	l	TR
39.609	2.0	2-back	1.0	1.0	0.981	f	BL
41.608	2.0	2-back	1.0	1.0	1.094	c	TR
43.607	2.0	2-back	0.0	1.0	0.639	r	TL
45.606	2.0	2-back	1.0	0.0	0.935	g	TR
47.605	2.0	2-back	0.0	1.0	0.917	s	BL
49.605	2.0	2-back	0.0	1.0	0.807	r	BR
51.604	2.0	2-back	1.0	1.0	0.805	v	BL
53.603	2.0	2-back	0.0	1.0	0.878	p	BL
55.602	2.0	2-back	0.0	1.0	0.808	t	TL
57.601	2.0	2-back	1.0	1.0	0.794	x	BL
59.6	2.0	2-back	0.0	1.0	0.683	z	BR
61.599	2.0	2-back	0.0	1.0	0.891	t	TR
63.598	2.0	2-back	0.0	1.0	0.791	g	TL
65.597	2.0	2-back	1.0	1.0	0.811	c	TR
67.596	2.0	2-back	0.0	1.0	0.532	p	BL
69.595	2.0	2-back	0.0	1.0	0.663	s	BR
71.594	2.0	2-back	0.0	1.0	0.728	v	TL
73.593	2.0	2-back	1.0	1.0	1.181	n	BR
75.592	2.0	2-back	0.0	1.0	0.494	c	BL
77.592	2.0	2-back	0.0	1.0	0.525	l	TL
79.591	2.0	2-back	0.0	1.0	0.537	x	BR
81.59	2.0	2-back	1.0	1.0	0.657	z	TL
83.589	2.0	2-back	0.0	1.0	0.387	g	TR
85.588	2.0	2-back	0.0	1.0	0.416	f	BR
87.587	2.0	2-back	0.0	1.0	0.529	z	TL
89.586	2.0	2-back	1.0	1.0	0.346	l	BR
91.585	2.0	2-back	0.0	1.0	0.593	r	TR
93.584	2.0	2-back	1.0	1.0	0.475	z	BR
95.583	2.0	2-back	0.0	1.0	0.612	n	BL
97.582	2.0	2-back	1.0	1.0	0.482	g	BR
103.629	2.0	baseline	n/a	1.0	n/a	blackcross.bmp	n/a
105.678	2.0	baseline	n/a	1.0	n/a	blackcross.bmp	n/a
107.727	2.0	baseline	n/a	1.0	n/a	blackcross.bmp	n/a
109.776	2.0	baseline	1.0	1.0	0.522	redcross.bmp	n/a
111.825	2.0	baseline	n/a	1.0	n/a	blackcross.bmp	n/a
113.874	2.0	baseline	1.0	1.0	0.482	redcross.bmp	n/a
115.923	2.0	baseline	n/a	1.0	n/a	blackcross.bmp	n/a
117.973	2.0	baseline	n/a	1.0	n/a	blackcross.bmp	n/a
120.022	2.0	baseline	1.0	1.0	0.527	redcross.bmp	n/a
122.071	2.0	baseline	n/a	1.0	n/a	blackcross.bmp	n/a
124.12	2.0	baseline	n/a	1.0	n/a	blackcross.bmp	n/a
126.169	2.0	baseline	1.0	1.0	0.458	redcross.bmp	n/a
132.216	1.8	no_response	n/a	1.0	n/a	p	TR
134.015	2.0	1-back	0.0	1.0	0.679	f	BL
136.014	2.0	1-back	1.0	1.0	0.531	n	BL
138.014	2.0	1-back	0.0	1.0	0.583	x	TR
140.013	2.0	1-back	0.0	1.0	0.58	c	TL
142.012	2.0	1-back	1.0	1.0	0.406	p	TL
144.011	2.0	1-back	0.0	1.0	0.697	n	BL
146.01	2.0	1-back	0.0	1.0	0.721	c	TR
148.009	2.0	1-back	1.0	1.0	0.496	g	TR
150.008	2.0	1-back	0.0	1.0	0.519	n	TL
152.007	2.0	1-back	0.0	1.0	0.586	s	BR
154.006	2.0	1-back	0.0	1.0	0.56	x	BL
156.005	2.0	1-back	0.0	1.0	0.6	t	TL
158.004	2.0	1-back	1.0	1.0	0.498	g	TL
160.003	2.0	1-back	0.0	1.0	0.499	p	BR
162.002	2.0	1-back	0.0	1.0	0.527	c	TL
164.002	2.0	1-back	1.0	1.0	0.566	r	TL
166.001	2.0	1-back	0.0	1.0	0.579	t	BL
168.0	2.0	1-back	1.0	1.0	0.705	v	BL
169.999	2.0	1-back	0.0	1.0	0.545	g	BR
171.998	2.0	1-back	0.0	1.0	0.692	p	TL
173.997	2.0	1-back	0.0	1.0	0.712	x	BR
175.996	2.0	1-back	1.0	1.0	0.634	z	BR
177.995	2.0	1-back	0.0	1.0	0.491	l	TR
179.994	2.0	1-back	1.0	1.0	0.573	v	TR
181.993	2.0	1-back	0.0	1.0	0.571	n	BR
183.992	2.0	1-back	0.0	1.0	0.555	r	BL
185.991	2.0	1-back	1.0	1.0	0.722	s	BL
187.99	2.0	1-back	0.0	1.0	0.577	z	TR
189.989	2.0	1-back	0.0	1.0	0.616	l	TL
191.989	2.0	1-back	0.0	1.0	0.611	g	BR
193.988	2.0	1-back	1.0	1.0	0.717	f	BR
195.987	2.0	1-back	0.0	1.0	0.517	t	TR
197.986	2.0	1-back	0.0	1.0	0.517	z	TL
199.985	2.0	1-back	1.0	1.0	0.613	l	TL
201.984	2.0	1-back	0.0	1.0	0.574	f	BL
203.983	2.0	1-back	0.0	1.0	0.673	t	TR
205.982	2.0	1-back	1.0	1.0	0.623	r	TR
207.981	2.0	1-back	0.0	1.0	0.524	l	BR
209.98	2.0	1-back	1.0	1.0	0.58	z	BR
211.979	2.0	1-back	0.0	1.0	0.532	r	TR
213.978	2.0	1-back	1.0	1.0	0.48	v	TR
215.977	2.0	1-back	0.0	1.0	0.55	s	BL
217.976	2.0	1-back	1.0	1.0	0.495	f	BL
219.976	2.0	1-back	0.0	1.0	0.523	v	TL
221.975	2.0	1-back	0.0	1.0	0.662	x	BR
223.974	2.0	1-back	1.0	1.0	0.64	c	BR
225.973	2.0	1-back	0.0	1.0	0.583	s	BL
232.02	2.0	baseline	n/a	1.0	n/a	blackcross.bmp	n/a
234.069	2.0	baseline	n/a	1.0	n/a	blackcross.bmp	n/a
236.118	2.0	baseline	1.0	1.0	0.504	redcross.bmp	n/a
238.167	2.0	baseline	1.0	1.0	0.509	redcross.bmp	n/a
240.216	2.0	baseline	n/a	1.0	n/a	blackcross.bmp	n/a
242.265	2.0	baseline	n/a	1.0	n/a	blackcross.bmp	n/a
244.314	2.0	baseline	1.0	1.0	0.417	redcross.bmp	n/a
246.363	2.0	baseline	n/a	1.0	n/a	blackcross.bmp	n/a
248.412	2.0	baseline	n/a	1.0	n/a	blackcross.bmp	n/a
250.461	2.0	baseline	n/a	1.0	n/a	blackcross.bmp	n/a
252.51	2.0	baseline	1.0	1.0	0.463	redcross.bmp	n/a
254.559	2.0	baseline	n/a	1.0	n/a	blackcross.bmp	n/a
