onset	duration	trial_type	correct_response	accuracy	response_time	stimulus	position
4.026	1.8	no_response	n/a	1.0	n/a	v	TR
5.825	1.8	no_response	n/a	1.0	n/a	r	BR
7.624	2.0	2-back	1.0	1.0	0.754	v	TL
9.623	2.0	2-back	0.0	1.0	0.835	g	TR
11.622	2.0	2-back	0.0	1.0	0.877	p	BL
13.621	2.0	2-back	1.0	1.0	0.657	g	BR
15.62	2.0	2-back	0.0	1.0	0.583	n	TL
17.619	2.0	2-back	0.0	1.0	0.807	x	TR
19.618	2.0	2-back	0.0	1.0	0.689	l	BR
21.617	2.0	2-back	0.0	1.0	0.704	c	TL
23.617	2.0	2-back	1.0	1.0	0.462	l	BL
25.616	2.0	2-back	1.0	0.0	0.457	c	TR
27.615	2.0	2-back	0.0	1.0	0.654	t	BR
29.614	2.0	2-back	0.0	1.0	0.963	n	TL
31.613	2.0	2-back	1.0	1.0	0.517	t	BR
33.612	2.0	2-back	0.0	1.0	0.512	f	TR
35.611	2.0	2-back	0.0	1.0	0.406	n	BR
37.61	2.0	2-back	0.0	1.0	0.68	x	TL
39.609	2.0	2-back	1.0	0.0	0.387	n	BL
41.608	2.0	2-back	0.0	1.0	0.502	r	TR
43.607	2.0	2-back	0.0	1.0	0.535	f	TL
45.606	2.0	2-back	1.0	1.0	0.456	r	BR
47.605	2.0	2-back	0.0	1.0	0.408	s	TR
49.604	2.0	2-back	0.0	1.0	0.677	v	BL
51.603	2.0	2-back	0.0	1.0	0.555	p	TL
53.602	2.0	2-back	1.0	1.0	0.61	v	TR
55.601	2.0	2-back	0.0	1.0	0.504	s	BL
57.601	2.0	2-back	0.0	1.0	0.491	p	BR
59.6	2.0	2-back	1.0	1.0	0.392	s	TR
61.599	2.0	2-back	0.0	1.0	0.589	g	BL
63.598	2.0	2-back	0.0	1.0	0.534	z	TL
65.597	2.0	2-back	0.0	1.0	0.539	r	BR
67.596	2.0	2-back	1.0	0.0	0.486	z	BL
69.595	2.0	2-back	0.0	1.0	0.412	c	BL
71.594	2.0	2-back	0.0	0.0	0.551	t	BR
73.593	2.0	2-back	1.0	0.0	0.449	c	TL
75.592	2.0	2-back	1.0	1.0	0.655	t	BL
77.591	2.0	2-back	0.0	1.0	0.626	s	BR
79.59	2.0	2-back	0.0	1.0	0.451	x	BL
81.589	2.0	2-back	0.0	1.0	0.498	f	TR
83.588	2.0	2-back	1.0	0.0	0.477	x	TR
85.587	2.0	2-back	1.0	1.0	0.739	f	BR
87.586	2.0	2-back	0.0	1.0	0.482	l	TL
89.586	2.0	2-back	0.0	1.0	0.468	p	BL
91.585	2.0	2-back	1.0	1.0	0.5	l	BL
93.584	2.0	2-back	0.0	1.0	0.501	z	TL
95.583	2.0	2-back	0.0	1.0	0.475	g	TL
97.582	2.0	2-back	1.0	1.0	0.533	z	TR
103.629	2.0	baseline	n/a	1.0	n/a	blackcross.bmp	n/a
105.678	2.0	baseline	1.0	1.0	0.556	redcross.bmp	n/a
107.727	2.0	baseline	n/a	1.0	n/a	blackcross.bmp	n/a
109.776	2.0	baseline	n/a	1.0	n/a	blackcross.bmp	n/a
111.825	2.0	baseline	n/a	1.0	n/a	blackcross.bmp	n/a
113.874	2.0	baseline	1.0	1.0	0.394	redcross.bmp	n/a
115.923	2.0	baseline	n/a	1.0	n/a	blackcross.bmp	n/a
117.972	2.0	baseline	n/a	1.0	n/a	blackcross.bmp	n/a
120.021	2.0	baseline	n/a	1.0	n/a	blackcross.bmp	n/a
122.07	2.0	baseline	n/a	1.0	n/a	blackcross.bmp	n/a
124.119	2.0	baseline	1.0	1.0	0.502	redcross.bmp	n/a
126.168	2.0	baseline	1.0	1.0	0.518	redcross.bmp	n/a
132.215	1.8	no_response	n/a	1.0	n/a	r	TL
134.015	2.0	1-back	1.0	1.0	0.769	r	TR
136.014	2.0	1-back	0.0	1.0	0.597	g	BR
138.013	2.0	1-back	1.0	1.0	0.555	g	TL
140.012	2.0	1-back	0.0	1.0	0.627	f	TR
142.011	2.0	1-back	0.0	1.0	0.626	t	BL
144.01	2.0	1-back	0.0	1.0	0.635	v	TL
146.009	2.0	1-back	0.0	1.0	0.568	p	TR
148.008	2.0	1-back	1.0	1.0	0.43	p	BL
150.007	2.0	1-back	0.0	1.0	0.493	z	BR
152.006	2.0	1-back	0.0	1.0	0.62	s	TR
154.005	2.0	1-back	1.0	1.0	0.448	s	BL
156.004	2.0	1-back	0.0	1.0	0.491	c	TL
158.003	2.0	1-back	1.0	1.0	0.592	c	BR
160.002	2.0	1-back	0.0	1.0	0.516	l	BR
162.001	2.0	1-back	0.0	1.0	0.666	n	BL
164.001	2.0	1-back	0.0	1.0	0.541	v	TL
166.0	2.0	1-back	1.0	1.0	0.577	v	TR
167.999	2.0	1-back	0.0	1.0	0.616	z	BR
169.998	2.0	1-back	0.0	1.0	0.731	s	TL
171.997	2.0	1-back	0.0	1.0	0.535	x	TR
173.996	2.0	1-back	1.0	1.0	0.644	x	BL
175.995	2.0	1-back	1.0	1.0	0.628	x	BR
177.994	2.0	1-back	0.0	1.0	0.558	v	TR
179.993	2.0	1-back	0.0	1.0	0.489	z	TL
181.992	2.0	1-back	1.0	0.0	0.463	z	BR
183.991	2.0	1-back	0.0	1.0	0.452	f	BL
185.99	2.0	1-back	0.0	1.0	0.616	r	TR
187.989	2.0	1-back	1.0	1.0	0.571	r	BL
189.988	2.0	1-back	0.0	1.0	0.533	n	TL
191.987	2.0	1-back	0.0	1.0	0.528	l	BL
193.986	2.0	1-back	1.0	1.0	0.461	l	BR
195.985	2.0	1-back	0.0	1.0	0.549	s	TL
197.985	2.0	1-back	0.0	1.0	0.593	g	TR
199.984	2.0	1-back	0.0	1.0	0.543	c	BL
201.983	2.0	1-back	1.0	1.0	0.616	c	TR
203.982	2.0	1-back	0.0	1.0	0.434	f	BR
205.981	2.0	1-back	1.0	1.0	0.505	f	TL
207.98	2.0	1-back	0.0	1.0	0.595	t	TR
209.979	2.0	1-back	0.0	1.0	0.642	x	BL
211.978	2.0	1-back	0.0	1.0	0.719	p	TL
213.977	2.0	1-back	1.0	1.0	0.7	p	BL
215.976	2.0	1-back	0.0	1.0	0.427	n	BR
217.975	2.0	1-back	1.0	1.0	0.467	n	TL
219.974	2.0	1-back	0.0	1.0	0.356	g	BR
221.973	2.0	1-back	0.0	0.0	0.374	l	BL
223.972	2.0	1-back	0.0	1.0	0.374	t	TR
225.971	2.0	1-back	1.0	0.0	0.363	t	BR
232.018	2.0	baseline	1.0	1.0	0.386	redcross.bmp	n/a
234.067	2.0	baseline	n/a	1.0	n/a	blackcross.bmp	n/a
236.116	2.0	baseline	1.0	1.0	0.416	redcross.bmp	n/a
238.165	2.0	baseline	n/a	1.0	n/a	blackcross.bmp	n/a
240.214	2.0	baseline	n/a	1.0	n/a	blackcross.bmp	n/a
242.263	2.0	baseline	n/a	1.0	n/a	blackcross.bmp	n/a
244.312	2.0	baseline	1.0	1.0	0.64	redcross.bmp	n/a
246.361	2.0	baseline	n/a	1.0	n/a	blackcross.bmp	n/a
248.411	2.0	baseline	n/a	1.0	n/a	blackcross.bmp	n/a
250.46	2.0	baseline	n/a	1.0	n/a	blackcross.bmp	n/a
252.509	2.0	baseline	1.0	1.0	0.57	redcross.bmp	n/a
254.558	2.0	baseline	n/a	1.0	n/a	blackcross.bmp	n/a
