onset	duration	trial_type	correct_response	accuracy	response_time	stimulus	position
2.027	1.8	no_response	n/a	1.0	n/a	v	TR
3.826	2.0	1-back	0.0	1.0	0.51	p	TL
5.842	2.0	1-back	0.0	1.0	0.728	z	BL
7.858	2.0	1-back	1.0	1.0	0.532	c	BL
9.873	2.0	1-back	0.0	1.0	0.662	t	TR
11.889	2.0	1-back	0.0	1.0	0.613	l	TL
13.905	2.0	1-back	1.0	1.0	0.451	c	TL
15.92	2.0	1-back	0.0	1.0	0.531	v	BL
17.936	2.0	1-back	0.0	1.0	0.609	n	BR
19.952	2.0	1-back	1.0	1.0	0.451	l	BR
21.968	2.0	1-back	0.0	1.0	0.629	v	TL
23.983	2.0	1-back	0.0	0.0	0.673	c	BR
25.999	2.0	1-back	0.0	1.0	0.656	r	TR
28.015	2.0	1-back	1.0	1.0	0.652	t	TR
30.031	2.0	1-back	0.0	1.0	0.853	n	BL
32.046	2.0	1-back	1.0	1.0	0.741	s	BL
34.062	2.0	1-back	0.0	1.0	0.828	v	TR
36.078	2.0	1-back	0.0	1.0	0.769	p	TL
38.093	2.0	1-back	1.0	1.0	0.763	c	TL
40.109	2.0	1-back	0.0	1.0	0.642	g	TR
42.125	2.0	1-back	1.0	1.0	0.608	z	TR
44.141	2.0	1-back	0.0	1.0	0.654	x	BR
46.156	2.0	1-back	0.0	1.0	0.741	g	BL
48.172	2.0	1-back	0.0	1.0	0.855	l	TL
50.188	2.0	1-back	0.0	1.0	0.61	r	BL
52.204	2.0	1-back	1.0	1.0	0.499	x	BL
54.219	2.0	1-back	0.0	1.0	0.577	f	BR
56.235	2.0	1-back	0.0	1.0	0.598	z	TR
58.251	2.0	1-back	1.0	1.0	0.677	r	TR
60.267	2.0	1-back	0.0	1.0	0.581	f	BL
62.282	2.0	1-back	1.0	1.0	0.565	n	BL
64.298	2.0	1-back	0.0	1.0	0.49	x	TR
66.314	2.0	1-back	1.0	1.0	0.66	t	TR
68.329	2.0	1-back	0.0	1.0	0.59	p	BR
70.345	2.0	1-back	1.0	1.0	0.571	x	BR
72.361	2.0	1-back	0.0	1.0	0.488	t	TL
74.377	2.0	1-back	1.0	1.0	0.555	s	TL
76.392	2.0	1-back	0.0	1.0	0.45	f	BL
78.408	2.0	1-back	0.0	1.0	0.793	l	BR
80.424	2.0	1-back	1.0	1.0	0.629	g	BR
82.44	2.0	1-back	0.0	1.0	0.48	n	TL
84.455	2.0	1-back	0.0	1.0	0.689	s	TR
86.471	2.0	1-back	0.0	1.0	0.667	p	BR
88.487	2.0	1-back	0.0	1.0	0.617	r	TL
90.503	2.0	1-back	1.0	1.0	0.671	s	TL
92.518	2.0	1-back	0.0	1.0	0.55	g	BR
94.534	2.0	1-back	1.0	1.0	0.736	z	BR
96.55	2.0	1-back	0.0	1.0	0.607	f	BL
102.613	2.0	baseline	n/a	1.0	n/a	blackcross.bmp	n/a
104.662	2.0	baseline	1.0	1.0	0.534	redcross.bmp	n/a
106.711	2.0	baseline	n/a	1.0	n/a	blackcross.bmp	n/a
108.76	2.0	baseline	1.0	1.0	0.567	n/a	n/a
110.81	2.0	baseline	n/a	1.0	n/a	blackcross.bmp	n/a
112.859	2.0	baseline	n/a	1.0	n/a	blackcross.bmp	n/a
114.908	2.0	baseline	1.0	1.0	0.354	n/a	n/a
116.957	2.0	baseline	n/a	1.0	n/a	blackcross.bmp	n/a
119.006	2.0	baseline	n/a	1.0	n/a	blackcross.bmp	n/a
121.055	2.0	baseline	n/a	1.0	n/a	blackcross.bmp	n/a
123.104	2.0	baseline	1.0	1.0	0.662	n/a	n/a
125.153	2.0	baseline	n/a	1.0	n/a	blackcross.bmp	n/a
131.2	1.8	no_response	n/a	1.0	n/a	c	BL
133.0	1.8	no_response	n/a	1.0	n/a	p	BR
134.799	2.0	2-back	1.0	1.0	0.611	n	BL
136.814	2.0	2-back	0.0	1.0	0.87	x	TR
138.83	2.0	2-back	0.0	1.0	0.928	g	TL
140.846	2.0	2-back	1.0	1.0	0.508	p	TR
142.862	2.0	2-back	1.0	1.0	0.527	c	TL
144.877	2.0	2-back	0.0	1.0	0.597	x	BL
146.893	2.0	2-back	1.0	0.0	0.946	l	TL
148.909	2.0	2-back	0.0	1.0	0.954	v	TR
150.925	2.0	2-back	0.0	1.0	0.798	g	TR
152.94	2.0	2-back	0.0	1.0	0.658	t	BR
154.956	2.0	2-back	0.0	1.0	0.883	z	BL
156.972	2.0	2-back	1.0	1.0	0.67	n	BR
158.987	2.0	2-back	0.0	1.0	0.807	f	TL
161.003	2.0	2-back	0.0	1.0	0.805	n	TR
163.019	2.0	2-back	1.0	1.0	0.93	t	TL
165.035	2.0	2-back	0.0	1.0	0.587	v	BL
167.05	2.0	2-back	1.0	1.0	0.89	l	TL
169.066	2.0	2-back	0.0	1.0	0.866	r	TL
171.082	2.0	2-back	0.0	1.0	1.072	s	BR
173.098	2.0	2-back	0.0	1.0	0.897	v	BL
175.113	2.0	2-back	1.0	1.0	0.754	n	BR
177.129	2.0	2-back	0.0	1.0	0.607	p	TL
179.145	2.0	2-back	0.0	1.0	0.51	s	TR
181.161	2.0	2-back	0.0	1.0	0.848	g	BR
183.176	2.0	2-back	0.0	1.0	0.784	p	BL
185.192	2.0	2-back	1.0	1.0	0.764	f	BR
187.208	2.0	2-back	0.0	1.0	0.576	r	TR
189.223	2.0	2-back	0.0	1.0	0.922	s	BL
191.239	2.0	2-back	1.0	1.0	0.738	z	TR
193.255	2.0	2-back	1.0	0.0	1.073	x	BL
195.271	2.0	2-back	0.0	1.0	0.893	c	TL
197.286	2.0	2-back	0.0	1.0	0.898	r	TR
199.302	2.0	2-back	0.0	1.0	0.873	v	BR
201.318	2.0	2-back	0.0	1.0	1.099	l	TL
203.334	2.0	2-back	1.0	1.0	0.75	c	BR
205.349	2.0	2-back	0.0	1.0	0.607	s	TR
207.365	2.0	2-back	1.0	0.0	n/a	t	BR
209.381	2.0	2-back	0.0	1.0	0.733	r	BL
211.397	2.0	2-back	0.0	1.0	0.518	f	TL
213.412	2.0	2-back	1.0	1.0	0.797	z	BL
215.428	2.0	2-back	0.0	1.0	0.603	l	TR
217.444	2.0	2-back	0.0	1.0	0.639	x	TL
219.46	2.0	2-back	1.0	1.0	0.79	f	TR
221.475	2.0	2-back	0.0	1.0	0.653	g	BR
223.491	2.0	2-back	0.0	1.0	0.721	t	BL
225.507	2.0	2-back	1.0	1.0	0.68	z	BR
231.57	2.0	baseline	n/a	1.0	n/a	blackcross.bmp	n/a
233.619	2.0	baseline	1.0	1.0	0.405	redcross.bmp	n/a
235.668	2.0	baseline	n/a	1.0	n/a	blackcross.bmp	n/a
237.717	2.0	baseline	1.0	1.0	0.424	redcross.bmp	n/a
239.766	2.0	baseline	n/a	1.0	n/a	blackcross.bmp	n/a
241.815	2.0	baseline	n/a	1.0	n/a	blackcross.bmp	n/a
243.865	2.0	baseline	n/a	1.0	n/a	blackcross.bmp	n/a
245.914	2.0	baseline	n/a	1.0	n/a	blackcross.bmp	n/a
247.963	2.0	baseline	1.0	1.0	0.464	redcross.bmp	n/a
250.012	2.0	baseline	n/a	1.0	n/a	blackcross.bmp	n/a
252.061	2.0	baseline	n/a	1.0	n/a	blackcross.bmp	n/a
254.11	2.0	baseline	1.0	1.0	0.504	redcross.bmp	n/a
