onset	duration	trial_type	correct_response	accuracy	response_time	stimulus	position
4.026	1.8	no_response	n/a	1.0	n/a	p	TR
5.825	2.0	1-back	0.0	1.0	0.563	f	BL
7.824	2.0	1-back	1.0	1.0	0.853	n	BL
9.824	2.0	1-back	0.0	1.0	0.479	x	TR
11.823	2.0	1-back	0.0	1.0	0.5	c	TL
13.822	2.0	1-back	1.0	1.0	0.572	p	TL
15.821	2.0	1-back	0.0	1.0	0.604	n	BL
17.82	2.0	1-back	0.0	1.0	0.463	c	TR
19.819	2.0	1-back	1.0	1.0	0.61	g	TR
21.818	2.0	1-back	0.0	1.0	0.53	n	TL
23.817	2.0	1-back	0.0	1.0	0.821	s	BR
25.816	2.0	1-back	0.0	1.0	0.633	x	BL
27.815	2.0	1-back	0.0	1.0	0.639	t	TL
29.814	2.0	1-back	1.0	1.0	0.479	g	TL
31.813	2.0	1-back	0.0	1.0	0.546	p	BR
33.812	2.0	1-back	0.0	1.0	0.639	c	TL
35.811	2.0	1-back	1.0	1.0	0.64	r	TL
37.81	2.0	1-back	0.0	1.0	0.546	t	BL
39.81	2.0	1-back	1.0	1.0	0.674	v	BL
41.809	2.0	1-back	0.0	1.0	0.57	g	BR
43.808	2.0	1-back	0.0	1.0	0.588	p	TL
45.807	2.0	1-back	0.0	1.0	0.544	x	BR
47.806	2.0	1-back	1.0	1.0	0.678	z	BR
49.805	2.0	1-back	0.0	1.0	0.484	l	TR
51.804	2.0	1-back	1.0	1.0	0.565	v	TR
53.803	2.0	1-back	0.0	1.0	0.481	n	BR
55.802	2.0	1-back	0.0	1.0	0.574	r	BL
57.801	2.0	1-back	1.0	1.0	0.617	s	BL
59.8	2.0	1-back	0.0	1.0	0.534	z	TR
61.799	2.0	1-back	0.0	1.0	0.549	l	TL
63.798	2.0	1-back	0.0	1.0	0.632	g	BR
65.797	2.0	1-back	1.0	1.0	0.696	f	BR
67.796	2.0	1-back	0.0	1.0	0.625	t	TR
69.796	2.0	1-back	0.0	1.0	0.657	z	TL
71.795	2.0	1-back	1.0	1.0	0.537	l	TL
73.794	2.0	1-back	0.0	1.0	0.627	f	BL
75.793	2.0	1-back	0.0	1.0	0.509	t	TR
77.792	2.0	1-back	1.0	1.0	0.593	r	TR
79.791	2.0	1-back	0.0	1.0	0.595	l	BR
81.79	2.0	1-back	1.0	1.0	0.543	z	BR
83.789	2.0	1-back	0.0	1.0	0.573	r	TR
85.788	2.0	1-back	1.0	1.0	0.613	v	TR
87.787	2.0	1-back	0.0	1.0	0.667	s	BL
89.786	2.0	1-back	1.0	1.0	0.629	f	BL
91.785	2.0	1-back	0.0	1.0	0.486	v	TL
93.784	2.0	1-back	0.0	1.0	0.583	x	BR
95.783	2.0	1-back	1.0	1.0	0.754	c	BR
97.782	2.0	1-back	0.0	1.0	0.561	s	BL
103.829	2.0	baseline	n/a	1.0	n/a	blackcross.bmp	n/a
105.878	2.0	baseline	n/a	1.0	n/a	blackcross.bmp	n/a
107.927	2.0	baseline	1.0	1.0	0.329	redcross.bmp	n/a
109.976	2.0	baseline	1.0	1.0	0.472	redcross.bmp	n/a
112.026	2.0	baseline	n/a	1.0	n/a	blackcross.bmp	n/a
114.075	2.0	baseline	n/a	1.0	n/a	blackcross.bmp	n/a
116.124	2.0	baseline	1.0	1.0	0.345	redcross.bmp	n/a
118.173	2.0	baseline	n/a	1.0	n/a	blackcross.bmp	n/a
120.222	2.0	baseline	n/a	1.0	n/a	blackcross.bmp	n/a
122.271	2.0	baseline	n/a	1.0	n/a	blackcross.bmp	n/a
124.32	2.0	baseline	1.0	1.0	0.351	redcross.bmp	n/a
126.369	2.0	baseline	n/a	1.0	n/a	blackcross.bmp	n/a
132.416	1.8	no_response	n/a	1.0	n/a	c	BL
134.215	1.8	no_response	n/a	1.0	n/a	l	TR
136.015	2.0	2-back	0.0	1.0	0.707	v	BR
138.014	2.0	2-back	1.0	1.0	0.549	p	TR
140.013	2.0	2-back	0.0	1.0	0.564	r	TL
142.012	2.0	2-back	0.0	1.0	0.588	t	BR
144.011	2.0	2-back	1.0	1.0	0.566	n	TL
146.01	2.0	2-back	0.0	1.0	0.485	s	TR
148.009	2.0	2-back	0.0	1.0	0.445	f	BL
150.008	2.0	2-back	1.0	1.0	0.325	x	TR
152.007	2.0	2-back	0.0	1.0	0.543	v	BR
154.006	2.0	2-back	0.0	1.0	0.511	p	BL
156.005	2.0	2-back	1.0	1.0	0.617	f	BR
158.004	2.0	2-back	0.0	1.0	0.426	n	TL
160.003	2.0	2-back	0.0	1.0	0.436	x	TR
162.002	2.0	2-back	1.0	1.0	0.373	t	TL
164.001	2.0	2-back	0.0	1.0	0.613	s	BL
166.001	2.0	2-back	0.0	1.0	0.488	l	TR
168.0	2.0	2-back	1.0	1.0	0.616	f	BL
169.999	2.0	2-back	1.0	0.0	0.461	c	TR
171.998	2.0	2-back	0.0	1.0	0.668	r	TL
173.997	2.0	2-back	1.0	1.0	0.608	g	TR
175.996	2.0	2-back	0.0	1.0	0.459	s	BL
177.995	2.0	2-back	0.0	1.0	0.54	r	BR
179.994	2.0	2-back	1.0	1.0	0.64	v	BL
181.993	2.0	2-back	0.0	0.0	0.678	p	BL
183.992	2.0	2-back	0.0	1.0	0.546	t	TL
185.991	2.0	2-back	1.0	0.0	0.515	x	BL
187.99	2.0	2-back	0.0	1.0	0.567	z	BR
189.989	2.0	2-back	0.0	1.0	0.569	t	TR
191.988	2.0	2-back	0.0	1.0	0.561	g	TL
193.987	2.0	2-back	1.0	1.0	0.453	c	TR
195.987	2.0	2-back	0.0	1.0	0.526	p	BL
197.986	2.0	2-back	0.0	1.0	0.517	s	BR
199.985	2.0	2-back	0.0	1.0	0.514	v	TL
201.984	2.0	2-back	1.0	1.0	0.55	n	BR
203.983	2.0	2-back	0.0	1.0	0.692	c	BL
205.982	2.0	2-back	0.0	1.0	0.666	l	TL
207.981	2.0	2-back	0.0	1.0	0.92	x	BR
209.98	2.0	2-back	1.0	1.0	0.563	z	TL
211.979	2.0	2-back	0.0	1.0	0.728	g	TR
213.978	2.0	2-back	0.0	1.0	0.577	f	BR
215.977	2.0	2-back	0.0	1.0	0.634	z	TL
217.976	2.0	2-back	1.0	1.0	0.753	l	BR
219.975	2.0	2-back	0.0	1.0	0.472	r	TR
221.974	2.0	2-back	1.0	0.0	0.863	z	BR
223.973	2.0	2-back	0.0	1.0	0.732	n	BL
225.973	2.0	2-back	1.0	1.0	0.608	g	BR
232.019	2.0	baseline	n/a	1.0	n/a	blackcross.bmp	n/a
234.068	2.0	baseline	n/a	1.0	n/a	blackcross.bmp	n/a
236.118	2.0	baseline	n/a	1.0	n/a	blackcross.bmp	n/a
238.167	2.0	baseline	1.0	1.0	0.378	redcross.bmp	n/a
240.216	2.0	baseline	n/a	1.0	n/a	blackcross.bmp	n/a
242.265	2.0	baseline	1.0	1.0	0.396	redcross.bmp	n/a
244.314	2.0	baseline	n/a	1.0	n/a	blackcross.bmp	n/a
246.363	2.0	baseline	n/a	1.0	n/a	blackcross.bmp	n/a
248.412	2.0	baseline	1.0	1.0	0.379	redcross.bmp	n/a
250.461	2.0	baseline	n/a	1.0	n/a	blackcross.bmp	n/a
252.51	2.0	baseline	n/a	1.0	n/a	blackcross.bmp	n/a
254.559	2.0	baseline	1.0	1.0	0.379	redcross.bmp	n/a
