onset	duration	trial_type	correct_response	accuracy	response_time	stimulus	position
4.026	1.8	no_response	n/a	1.0	n/a	r	TL
5.825	2.0	1-back	1.0	1.0	0.999	r	TR
7.824	2.0	1-back	0.0	1.0	0.367	g	BR
9.823	2.0	1-back	1.0	0.0	0.144	g	TL
11.823	2.0	1-back	0.0	1.0	0.325	f	TR
13.821	2.0	1-back	0.0	1.0	0.616	t	BL
15.82	2.0	1-back	0.0	1.0	0.451	v	TL
17.819	2.0	1-back	0.0	1.0	0.353	p	TR
19.818	2.0	1-back	1.0	1.0	0.564	p	BL
21.817	2.0	1-back	0.0	1.0	0.281	z	BR
23.817	2.0	1-back	0.0	1.0	0.093	s	TR
25.816	2.0	1-back	1.0	0.0	0.019	s	BL
27.815	2.0	1-back	0.0	1.0	0.278	c	TL
29.814	2.0	1-back	1.0	0.0	n/a	c	BR
31.813	2.0	1-back	0.0	1.0	0.149	l	BR
33.812	2.0	1-back	0.0	1.0	0.087	n	BL
35.811	2.0	1-back	0.0	1.0	0.199	v	TL
37.81	2.0	1-back	1.0	1.0	0.509	v	TR
39.809	2.0	1-back	0.0	0.0	n/a	z	BR
41.808	2.0	1-back	0.0	1.0	0.114	s	TL
43.807	2.0	1-back	0.0	1.0	0.361	x	TR
45.806	2.0	1-back	1.0	0.0	n/a	x	BL
47.805	2.0	1-back	1.0	0.0	n/a	x	BR
49.804	2.0	1-back	0.0	1.0	0.332	v	TR
51.803	2.0	1-back	0.0	0.0	0.254	z	TL
53.803	2.0	1-back	1.0	0.0	0.258	z	BR
55.802	2.0	1-back	0.0	1.0	0.056	f	BL
57.801	2.0	1-back	0.0	1.0	0.248	r	TR
59.8	2.0	1-back	1.0	0.0	0.247	r	BL
61.799	2.0	1-back	0.0	1.0	0.201	n	TL
63.798	2.0	1-back	0.0	1.0	0.286	l	BL
65.797	2.0	1-back	1.0	0.0	0.433	l	BR
67.796	2.0	1-back	0.0	1.0	0.419	s	TL
69.795	2.0	1-back	0.0	0.0	0.314	g	TR
71.794	2.0	1-back	0.0	1.0	0.136	c	BL
73.793	2.0	1-back	1.0	0.0	0.423	c	TR
75.792	2.0	1-back	0.0	1.0	0.249	f	BR
77.791	2.0	1-back	1.0	0.0	0.171	f	TL
79.79	2.0	1-back	0.0	1.0	0.084	t	TR
81.789	2.0	1-back	0.0	1.0	0.372	x	BL
83.789	2.0	1-back	0.0	1.0	0.362	p	TL
85.788	2.0	1-back	1.0	1.0	0.351	p	BL
87.787	2.0	1-back	0.0	0.0	n/a	n	BR
89.786	2.0	1-back	1.0	0.0	0.065	n	TL
91.785	2.0	1-back	0.0	1.0	0.34	g	BR
93.784	2.0	1-back	0.0	1.0	0.21	l	BL
95.783	2.0	1-back	0.0	1.0	0.242	t	TR
97.782	2.0	1-back	1.0	0.0	0.315	t	BR
103.829	2.0	baseline	1.0	1.0	1.067	redcross.bmp	n/a
105.878	2.0	baseline	n/a	1.0	n/a	blackcross.bmp	n/a
107.927	2.0	baseline	1.0	1.0	0.429	redcross.bmp	n/a
109.976	2.0	baseline	n/a	1.0	n/a	blackcross.bmp	n/a
112.025	2.0	baseline	n/a	1.0	n/a	blackcross.bmp	n/a
114.074	2.0	baseline	n/a	1.0	n/a	blackcross.bmp	n/a
116.123	2.0	baseline	1.0	1.0	0.481	redcross.bmp	n/a
118.172	2.0	baseline	n/a	1.0	n/a	blackcross.bmp	n/a
120.221	2.0	baseline	n/a	1.0	n/a	blackcross.bmp	n/a
122.27	2.0	baseline	n/a	1.0	n/a	blackcross.bmp	n/a
124.319	2.0	baseline	1.0	1.0	0.802	redcross.bmp	n/a
126.368	2.0	baseline	n/a	1.0	n/a	blackcross.bmp	n/a
132.416	1.8	no_response	n/a	1.0	n/a	v	TR
134.215	1.8	no_response	n/a	1.0	n/a	r	BR
136.014	2.0	2-back	1.0	1.0	0.491	v	TL
138.013	2.0	2-back	0.0	1.0	0.29	g	TR
140.012	2.0	2-back	0.0	1.0	0.338	p	BL
142.011	2.0	2-back	1.0	1.0	0.391	g	BR
144.01	2.0	2-back	0.0	0.0	n/a	n	TL
146.009	2.0	2-back	0.0	1.0	0.184	x	TR
148.009	2.0	2-back	0.0	1.0	0.287	l	BR
150.008	2.0	2-back	0.0	1.0	0.147	c	TL
152.007	2.0	2-back	1.0	0.0	0.114	l	BL
154.006	2.0	2-back	1.0	0.0	0.094	c	TR
156.005	2.0	2-back	0.0	1.0	0.166	t	BR
158.004	2.0	2-back	0.0	1.0	0.321	n	TL
160.003	2.0	2-back	1.0	0.0	0.387	t	BR
162.002	2.0	2-back	0.0	1.0	0.139	f	TR
164.001	2.0	2-back	0.0	1.0	0.363	n	BR
166.0	2.0	2-back	0.0	1.0	0.419	x	TL
167.999	2.0	2-back	1.0	0.0	0.284	n	BL
169.998	2.0	2-back	0.0	0.0	n/a	r	TR
171.997	2.0	2-back	0.0	1.0	0.177	f	TL
173.996	2.0	2-back	1.0	0.0	0.407	r	BR
175.995	2.0	2-back	0.0	1.0	0.321	s	TR
177.995	2.0	2-back	0.0	1.0	0.115	v	BL
179.994	2.0	2-back	0.0	1.0	0.472	p	TL
181.993	2.0	2-back	1.0	0.0	n/a	v	TR
183.992	2.0	2-back	0.0	0.0	n/a	s	BL
185.991	2.0	2-back	0.0	0.0	0.221	p	BR
187.99	2.0	2-back	1.0	0.0	n/a	s	TR
189.989	2.0	2-back	0.0	0.0	n/a	g	BL
191.988	2.0	2-back	0.0	1.0	0.167	z	TL
193.987	2.0	2-back	0.0	1.0	0.489	r	BR
195.986	2.0	2-back	1.0	0.0	0.242	z	BL
197.985	2.0	2-back	0.0	1.0	0.31	c	BL
199.984	2.0	2-back	0.0	1.0	0.113	t	BR
201.983	2.0	2-back	1.0	0.0	0.247	c	TL
203.982	2.0	2-back	1.0	0.0	0.288	t	BL
205.981	2.0	2-back	0.0	1.0	0.256	s	BR
207.981	2.0	2-back	0.0	1.0	0.276	x	BL
209.98	2.0	2-back	0.0	0.0	n/a	f	TR
211.979	2.0	2-back	1.0	0.0	n/a	x	TR
213.978	2.0	2-back	1.0	0.0	0.074	f	BR
215.977	2.0	2-back	0.0	1.0	0.357	l	TL
217.976	2.0	2-back	0.0	1.0	0.205	p	BL
219.975	2.0	2-back	1.0	0.0	n/a	l	BL
221.974	2.0	2-back	0.0	1.0	0.068	z	TL
223.973	2.0	2-back	0.0	0.0	n/a	g	TL
225.972	2.0	2-back	1.0	0.0	0.185	z	TR
232.019	2.0	baseline	n/a	1.0	n/a	blackcross.bmp	n/a
234.068	2.0	baseline	1.0	1.0	0.98	redcross.bmp	n/a
236.117	2.0	baseline	n/a	1.0	n/a	blackcross.bmp	n/a
238.166	2.0	baseline	n/a	0.0	0.798	blackcross.bmp	n/a
240.215	2.0	baseline	n/a	1.0	n/a	blackcross.bmp	n/a
242.264	2.0	baseline	1.0	1.0	0.824	redcross.bmp	n/a
244.313	2.0	baseline	n/a	1.0	n/a	blackcross.bmp	n/a
246.362	2.0	baseline	n/a	1.0	n/a	blackcross.bmp	n/a
248.411	2.0	baseline	n/a	1.0	n/a	blackcross.bmp	n/a
250.46	2.0	baseline	n/a	1.0	n/a	blackcross.bmp	n/a
252.509	2.0	baseline	1.0	1.0	0.659	redcross.bmp	n/a
254.559	2.0	baseline	1.0	1.0	0.902	redcross.bmp	n/a
