onset	duration	trial_type	correct_response	accuracy	response_time	stimulus	position
4.025	1.8	no_response	n/a	0.0	0.969	t	TR
5.825	2.0	1-back	0.0	0.0	1.114	c	BR
7.84	2.0	1-back	0.0	0.0	0.831	n	BL
9.856	2.0	1-back	1.0	1.0	0.576	l	BL
11.872	2.0	1-back	0.0	1.0	0.581	g	TR
13.888	2.0	1-back	0.0	1.0	0.497	f	TL
15.903	2.0	1-back	1.0	1.0	0.8	p	TL
17.919	2.0	1-back	0.0	1.0	0.571	x	TR
19.935	2.0	1-back	1.0	0.0	0.73	n	TR
21.95	2.0	1-back	0.0	1.0	0.588	s	TL
23.966	2.0	1-back	0.0	1.0	0.927	r	BR
25.982	2.0	1-back	1.0	1.0	0.88	v	BR
27.998	2.0	1-back	0.0	1.0	0.579	l	TL
30.013	2.0	1-back	1.0	0.0	0.639	z	TL
32.029	2.0	1-back	0.0	0.0	0.714	c	TR
34.045	2.0	1-back	0.0	1.0	0.622	f	BL
36.061	2.0	1-back	0.0	1.0	0.571	p	TR
38.076	2.0	1-back	1.0	1.0	0.622	t	TR
40.092	2.0	1-back	0.0	1.0	0.483	g	BL
42.108	2.0	1-back	1.0	1.0	0.843	x	BL
44.124	2.0	1-back	0.0	1.0	0.589	c	TR
46.139	2.0	1-back	1.0	1.0	1.104	p	TR
48.155	2.0	1-back	0.0	1.0	0.496	z	TL
50.171	2.0	1-back	0.0	1.0	0.718	r	BL
52.186	2.0	1-back	1.0	1.0	0.704	n	BL
54.202	2.0	1-back	0.0	1.0	0.632	z	BR
56.218	2.0	1-back	0.0	0.0	0.537	f	BL
58.234	2.0	1-back	0.0	1.0	0.426	s	TL
60.249	2.0	1-back	0.0	1.0	0.65	v	BR
62.265	2.0	1-back	1.0	1.0	0.986	c	BR
64.281	2.0	1-back	0.0	1.0	0.457	z	TL
66.297	2.0	1-back	1.0	1.0	0.915	r	TL
68.312	2.0	1-back	0.0	1.0	0.824	l	TR
70.328	2.0	1-back	1.0	1.0	0.739	n	TR
72.344	2.0	1-back	0.0	1.0	0.633	v	BR
74.36	2.0	1-back	1.0	1.0	1.021	f	BR
76.375	2.0	1-back	0.0	1.0	0.686	r	TL
78.391	2.0	1-back	1.0	0.0	0.785	l	TL
80.407	2.0	1-back	0.0	0.0	0.822	x	BR
82.422	2.0	1-back	0.0	1.0	0.448	s	BL
84.438	2.0	1-back	0.0	1.0	1.032	g	TL
86.454	2.0	1-back	0.0	1.0	0.978	t	BL
88.47	2.0	1-back	0.0	1.0	0.807	p	BR
90.485	2.0	1-back	0.0	0.0	0.539	s	BL
92.501	2.0	1-back	1.0	1.0	0.611	x	BL
94.517	2.0	1-back	0.0	1.0	0.475	v	TR
96.533	2.0	1-back	0.0	1.0	0.875	t	BR
98.548	2.0	1-back	1.0	1.0	1.005	g	BR
104.612	2.0	baseline	n/a	1.0	n/a	blackcross.bmp	n/a
106.661	2.0	baseline	1.0	1.0	0.592	redcross.bmp	n/a
108.71	2.0	baseline	n/a	1.0	n/a	blackcross.bmp	n/a
110.759	2.0	baseline	1.0	1.0	0.56	redcross.bmp	n/a
112.808	2.0	baseline	1.0	0.0	n/a	redcross.bmp	n/a
114.857	2.0	baseline	n/a	1.0	n/a	blackcross.bmp	n/a
116.906	2.0	baseline	n/a	1.0	n/a	blackcross.bmp	n/a
118.955	2.0	baseline	n/a	1.0	n/a	blackcross.bmp	n/a
121.004	2.0	baseline	n/a	1.0	n/a	blackcross.bmp	n/a
123.053	2.0	baseline	1.0	1.0	0.678	redcross.bmp	n/a
125.102	2.0	baseline	n/a	1.0	n/a	blackcross.bmp	n/a
127.151	2.0	baseline	n/a	1.0	n/a	blackcross.bmp	n/a
133.199	1.8	no_response	n/a	1.0	n/a	r	TL
134.998	1.8	no_response	n/a	1.0	n/a	p	TR
136.797	2.0	2-back	0.0	1.0	0.589	x	BL
138.813	2.0	2-back	1.0	0.0	0.598	t	TR
140.829	2.0	2-back	0.0	0.0	0.823	g	TL
142.844	2.0	2-back	0.0	0.0	0.973	n	BL
144.86	2.0	2-back	1.0	1.0	0.855	z	TL
146.876	2.0	2-back	0.0	1.0	0.409	c	TR
148.892	2.0	2-back	0.0	1.0	0.678	v	BR
150.907	2.0	2-back	0.0	0.0	0.7	n	BL
152.923	2.0	2-back	1.0	1.0	0.823	g	BR
154.939	2.0	2-back	0.0	0.0	0.851	s	TL
156.955	2.0	2-back	0.0	1.0	0.619	v	TR
158.97	2.0	2-back	1.0	1.0	0.542	l	TL
160.986	2.0	2-back	1.0	0.0	0.481	f	TR
163.002	2.0	2-back	0.0	0.0	0.507	s	BR
165.018	2.0	2-back	0.0	1.0	0.778	c	TL
167.033	2.0	2-back	0.0	1.0	0.822	r	BL
169.049	2.0	2-back	1.0	0.0	0.704	s	TL
171.065	2.0	2-back	0.0	1.0	1.041	l	BR
173.08	2.0	2-back	0.0	0.0	n/a	z	BL
175.096	2.0	2-back	1.0	0.0	n/a	x	BR
177.112	2.0	2-back	0.0	1.0	0.666	f	TL
179.128	2.0	2-back	0.0	0.0	0.743	t	TL
181.143	2.0	2-back	0.0	1.0	0.284	x	TR
183.159	2.0	2-back	1.0	1.0	0.95	r	TL
185.175	2.0	2-back	0.0	1.0	0.572	l	BR
187.191	2.0	2-back	0.0	0.0	0.761	n	BL
189.206	2.0	2-back	1.0	0.0	0.795	s	BR
191.222	2.0	2-back	0.0	1.0	0.801	f	BR
193.238	2.0	2-back	0.0	1.0	0.618	g	BL
195.254	2.0	2-back	0.0	1.0	1.022	p	TR
197.269	2.0	2-back	1.0	0.0	0.816	v	BL
199.285	2.0	2-back	0.0	1.0	0.583	t	BR
201.301	2.0	2-back	1.0	1.0	0.912	t	BL
203.316	2.0	2-back	0.0	1.0	0.613	z	TL
205.332	2.0	2-back	0.0	0.0	0.69	f	TR
207.348	2.0	2-back	1.0	0.0	0.463	p	TL
209.364	2.0	2-back	1.0	0.0	0.925	g	TR
211.379	2.0	2-back	0.0	1.0	0.888	c	BL
213.395	2.0	2-back	1.0	0.0	1.086	r	TR
215.411	2.0	2-back	0.0	1.0	0.93	p	BR
217.427	2.0	2-back	0.0	1.0	0.783	x	TL
219.442	2.0	2-back	0.0	1.0	0.519	l	TR
221.458	2.0	2-back	0.0	1.0	0.635	z	BL
223.474	2.0	2-back	0.0	1.0	0.745	c	BR
225.49	2.0	2-back	1.0	1.0	0.636	n	BL
227.505	2.0	2-back	1.0	0.0	0.451	v	BR
233.569	2.0	baseline	1.0	0.0	n/a	redcross.bmp	n/a
235.618	2.0	baseline	n/a	1.0	n/a	blackcross.bmp	n/a
237.667	2.0	baseline	n/a	1.0	n/a	blackcross.bmp	n/a
239.716	2.0	baseline	n/a	1.0	n/a	blackcross.bmp	n/a
241.765	2.0	baseline	1.0	1.0	0.607	redcross.bmp	n/a
243.814	2.0	baseline	n/a	1.0	n/a	blackcross.bmp	n/a
245.863	2.0	baseline	n/a	1.0	n/a	blackcross.bmp	n/a
247.912	2.0	baseline	1.0	0.0	n/a	redcross.bmp	n/a
249.961	2.0	baseline	n/a	1.0	n/a	blackcross.bmp	n/a
252.01	2.0	baseline	n/a	1.0	n/a	blackcross.bmp	n/a
254.059	2.0	baseline	1.0	1.0	0.657	redcross.bmp	n/a
256.108	2.0	baseline	n/a	1.0	n/a	blackcross.bmp	n/a
