onset	duration	trial_type	correct_response	accuracy	response_time	stimulus	position
2.027	1.8	no_response	n/a	1.0	n/a	v	TR
3.826	2.0	1-back	0.0	0.0	n/a	p	TL
5.842	2.0	1-back	0.0	1.0	1.033	z	BL
7.858	2.0	1-back	1.0	0.0	0.968	c	BL
9.874	2.0	1-back	0.0	0.0	0.499	t	TR
11.889	2.0	1-back	0.0	1.0	0.514	l	TL
13.905	2.0	1-back	1.0	0.0	1.092	c	TL
15.921	2.0	1-back	0.0	0.0	0.684	v	BL
17.937	2.0	1-back	0.0	1.0	0.821	n	BR
19.952	2.0	1-back	1.0	0.0	0.798	l	BR
21.968	2.0	1-back	0.0	0.0	0.598	v	TL
23.984	2.0	1-back	0.0	1.0	0.727	c	BR
25.999	2.0	1-back	0.0	1.0	0.722	r	TR
28.015	2.0	1-back	1.0	0.0	0.731	t	TR
30.031	2.0	1-back	0.0	1.0	0.68	n	BL
32.047	2.0	1-back	1.0	1.0	0.961	s	BL
34.062	2.0	1-back	0.0	1.0	0.4	v	TR
36.078	2.0	1-back	0.0	1.0	0.662	p	TL
38.094	2.0	1-back	1.0	0.0	0.517	c	TL
40.11	2.0	1-back	0.0	1.0	0.485	g	TR
42.125	2.0	1-back	1.0	1.0	0.651	z	TR
44.141	2.0	1-back	0.0	1.0	0.505	x	BR
46.157	2.0	1-back	0.0	1.0	0.705	g	BL
48.173	2.0	1-back	0.0	1.0	0.546	l	TL
50.188	2.0	1-back	0.0	0.0	0.951	r	BL
52.204	2.0	1-back	1.0	1.0	0.781	x	BL
54.22	2.0	1-back	0.0	1.0	0.39	f	BR
56.235	2.0	1-back	0.0	1.0	0.706	z	TR
58.251	2.0	1-back	1.0	1.0	0.986	r	TR
60.267	2.0	1-back	0.0	1.0	0.463	f	BL
62.283	2.0	1-back	1.0	1.0	0.818	n	BL
64.298	2.0	1-back	0.0	1.0	0.704	x	TR
66.314	2.0	1-back	1.0	1.0	0.615	t	TR
68.33	2.0	1-back	0.0	0.0	0.82	p	BR
70.346	2.0	1-back	1.0	1.0	0.693	x	BR
72.361	2.0	1-back	0.0	1.0	0.507	t	TL
74.377	2.0	1-back	1.0	1.0	0.721	s	TL
76.393	2.0	1-back	0.0	1.0	0.516	f	BL
78.409	2.0	1-back	0.0	1.0	0.39	l	BR
80.424	2.0	1-back	1.0	0.0	0.562	g	BR
82.44	2.0	1-back	0.0	0.0	0.545	n	TL
84.456	2.0	1-back	0.0	1.0	0.837	s	TR
86.471	2.0	1-back	0.0	1.0	1.091	p	BR
88.487	2.0	1-back	0.0	1.0	0.735	r	TL
90.503	2.0	1-back	1.0	1.0	0.869	s	TL
92.519	2.0	1-back	0.0	0.0	0.661	g	BR
94.534	2.0	1-back	1.0	1.0	0.79	z	BR
96.55	2.0	1-back	0.0	1.0	0.725	f	BL
102.614	2.0	baseline	n/a	1.0	n/a	blackcross.bmp	n/a
104.663	2.0	baseline	1.0	0.0	n/a	redcross.bmp	n/a
106.712	2.0	baseline	n/a	1.0	n/a	blackcross.bmp	n/a
108.761	2.0	baseline	1.0	1.0	0.721	n/a	n/a
110.81	2.0	baseline	n/a	1.0	n/a	blackcross.bmp	n/a
112.859	2.0	baseline	n/a	1.0	n/a	blackcross.bmp	n/a
114.908	2.0	baseline	1.0	1.0	0.391	n/a	n/a
116.957	2.0	baseline	n/a	1.0	n/a	blackcross.bmp	n/a
119.006	2.0	baseline	n/a	1.0	n/a	blackcross.bmp	n/a
121.055	2.0	baseline	n/a	1.0	n/a	blackcross.bmp	n/a
123.104	2.0	baseline	1.0	1.0	0.388	n/a	n/a
125.153	2.0	baseline	n/a	1.0	n/a	blackcross.bmp	n/a
131.201	1.8	no_response	n/a	1.0	n/a	c	BL
133.0	1.8	no_response	n/a	0.0	0.865	p	BR
134.799	2.0	2-back	1.0	1.0	0.836	n	BL
136.815	2.0	2-back	0.0	1.0	0.897	x	TR
138.831	2.0	2-back	0.0	1.0	0.666	g	TL
140.846	2.0	2-back	1.0	1.0	0.405	p	TR
142.862	2.0	2-back	1.0	0.0	0.467	c	TL
144.878	2.0	2-back	0.0	1.0	0.849	x	BL
146.893	2.0	2-back	1.0	1.0	0.998	l	TL
148.909	2.0	2-back	0.0	1.0	0.787	v	TR
150.925	2.0	2-back	0.0	0.0	n/a	g	TR
152.941	2.0	2-back	0.0	1.0	0.836	t	BR
154.956	2.0	2-back	0.0	1.0	0.848	z	BL
156.972	2.0	2-back	1.0	1.0	0.606	n	BR
158.988	2.0	2-back	0.0	1.0	0.66	f	TL
161.004	2.0	2-back	0.0	1.0	0.882	n	TR
163.019	2.0	2-back	1.0	1.0	0.996	t	TL
165.035	2.0	2-back	0.0	1.0	0.419	v	BL
167.051	2.0	2-back	1.0	1.0	0.596	l	TL
169.066	2.0	2-back	0.0	1.0	0.57	r	TL
171.082	2.0	2-back	0.0	0.0	0.915	s	BR
173.098	2.0	2-back	0.0	1.0	1.021	v	BL
175.114	2.0	2-back	1.0	1.0	0.304	n	BR
177.129	2.0	2-back	0.0	0.0	0.658	p	TL
179.145	2.0	2-back	0.0	1.0	0.471	s	TR
181.161	2.0	2-back	0.0	1.0	0.721	g	BR
183.177	2.0	2-back	0.0	1.0	0.701	p	BL
185.192	2.0	2-back	1.0	1.0	0.433	f	BR
187.208	2.0	2-back	0.0	1.0	0.738	r	TR
189.224	2.0	2-back	0.0	1.0	1.026	s	BL
191.24	2.0	2-back	1.0	0.0	0.432	z	TR
193.255	2.0	2-back	1.0	0.0	0.379	x	BL
195.271	2.0	2-back	0.0	1.0	0.673	c	TL
197.287	2.0	2-back	0.0	0.0	0.865	r	TR
199.302	2.0	2-back	0.0	1.0	0.657	v	BR
201.318	2.0	2-back	0.0	1.0	0.706	l	TL
203.334	2.0	2-back	1.0	0.0	0.684	c	BR
205.35	2.0	2-back	0.0	0.0	0.627	s	TR
207.365	2.0	2-back	1.0	0.0	0.558	t	BR
209.381	2.0	2-back	0.0	1.0	0.842	r	BL
211.397	2.0	2-back	0.0	0.0	0.62	f	TL
213.413	2.0	2-back	1.0	1.0	0.9	z	BL
215.428	2.0	2-back	0.0	1.0	0.658	l	TR
217.444	2.0	2-back	0.0	1.0	0.641	x	TL
219.46	2.0	2-back	1.0	1.0	0.464	f	TR
221.476	2.0	2-back	0.0	1.0	0.574	g	BR
223.491	2.0	2-back	0.0	1.0	0.558	t	BL
225.507	2.0	2-back	1.0	1.0	0.578	z	BR
231.571	2.0	baseline	n/a	1.0	n/a	blackcross.bmp	n/a
233.62	2.0	baseline	1.0	1.0	0.719	redcross.bmp	n/a
235.669	2.0	baseline	n/a	1.0	n/a	blackcross.bmp	n/a
237.718	2.0	baseline	1.0	1.0	0.453	redcross.bmp	n/a
239.767	2.0	baseline	n/a	1.0	n/a	blackcross.bmp	n/a
241.816	2.0	baseline	n/a	1.0	n/a	blackcross.bmp	n/a
243.865	2.0	baseline	n/a	1.0	n/a	blackcross.bmp	n/a
245.914	2.0	baseline	n/a	1.0	n/a	blackcross.bmp	n/a
247.963	2.0	baseline	1.0	1.0	0.785	redcross.bmp	n/a
250.012	2.0	baseline	n/a	1.0	n/a	blackcross.bmp	n/a
252.061	2.0	baseline	n/a	1.0	n/a	blackcross.bmp	n/a
254.11	2.0	baseline	1.0	1.0	0.52	redcross.bmp	n/a
